"Time (s)","Linear Acceleration x (m/s^2)","Linear Acceleration y (m/s^2)","Linear Acceleration z (m/s^2)","Absolute acceleration (m/s^2)"
2.525249962E-3,-3.610820347E-2,4.722284451E-3,-6.375570059E-2,7.342269190E-2
1.248725003E-2,3.581415247E-2,-6.042786743E-3,1.465627992E-1,1.509961023E-1
2.245024999E-2,-3.305922083E-3,1.469313931E-2,-5.226826072E-3,1.594168041E-2
3.241225006E-2,4.989154114E-2,2.383246528E-2,5.031061292E-2,7.475500017E-2
4.237525002E-2,1.336862619E-2,1.503569478E-2,-1.001452625E-2,2.247405214E-2
5.233724997E-2,2.845642515E-2,2.304594168E-2,1.917243540E-2,4.133359214E-2
6.230025005E-2,1.418794444E-2,1.071215389E-2,5.569355965E-2,5.846212958E-2
7.226225000E-2,-2.311794923E-3,9.677397721E-3,3.069145024E-2,3.226393560E-2
8.222524996E-2,-3.503772675E-3,9.789828714E-3,3.847175539E-2,3.985214087E-2
9.218725003E-2,-7.952660965E-3,-2.672798820E-3,-3.053708375E-2,3.166863043E-2
1.021502500E-1,-1.295506816E-2,-6.112606153E-3,8.829880357E-3,1.682749334E-2
1.121122501E-1,-1.883335171E-2,-6.556939725E-3,2.989096642E-3,2.016490253E-2
1.220752500E-1,-2.040772823E-2,-3.309710439E-2,3.846590817E-2,5.469478752E-2
1.320372500E-1,-3.235132630E-2,-3.881184407E-2,-1.803281307E-3,5.055906819E-2
1.419992500E-1,-7.058742747E-3,-2.432432575E-2,-6.443046927E-3,2.613448921E-2
1.519622500E-1,-1.239540511E-2,-2.854795234E-2,-1.751884282E-2,3.571472392E-2
1.619242500E-1,-1.777176687E-3,-1.431906369E-2,-7.037124038E-3,1.605350605E-2
1.718872500E-1,5.857955343E-3,-7.736907844E-3,3.308354616E-2,3.447747686E-2
1.818492500E-1,-3.188214891E-3,-3.098128941E-3,4.386581182E-2,4.409050424E-2
1.918122501E-1,1.885110806E-2,1.346275723E-2,2.635340095E-2,3.508720349E-2
2.017742500E-1,4.389696652E-3,2.258624090E-2,3.188779056E-2,3.932224436E-2
2.117372500E-1,1.471997255E-2,3.368336085E-2,5.691679716E-3,3.719733335E-2
2.216992500E-1,2.202683595E-2,2.341669170E-2,-2.089794874E-3,3.221630325E-2
2.316622500E-1,1.679067717E-2,4.929677881E-3,4.625673831E-2,4.945618670E-2
2.416242500E-1,-1.152926345E-2,-1.372706965E-3,2.081024051E-2,2.383011435E-2
2.515872500E-1,-3.004147512E-2,3.327906244E-2,-1.124828875E-2,4.622239959E-2
2.615492500E-1,-1.219426226E0,1.450620748E-1,-1.566603559E-1,1.237976492E0
2.715122501E-1,-5.353203698E0,2.617018941E-1,2.525774968E-1,5.365544996E0
2.814742500E-1,-6.223226702E0,5.559253438E-1,6.277687669E-2,6.248323336E0
2.914372500E-1,-4.638649387E0,1.180640256E0,-4.709990680E-2,4.786773229E0
3.013992500E-1,-3.496562162E0,1.702735510E0,-1.323137194E-1,3.891370208E0
3.113622500E-1,-3.123023608E0,1.409457884E0,9.519033194E-2,3.427668184E0
3.213242500E-1,-2.728822455E0,5.632757324E-1,2.257335144E-1,2.795479773E0
3.312872500E-1,-1.552407251E0,-5.534346857E-1,-3.428386259E-1,1.683388412E0
3.412492500E-1,-1.241357451E0,-1.336842629E0,2.548456317E-1,1.842026827E0
3.512122501E-1,-1.963532840E-1,-2.252546421E0,6.140804350E-2,2.261921957E0
3.611742500E-1,8.603646467E-1,-2.780180889E0,-1.675274062E-1,2.915081222E0
3.711372500E-1,9.793194517E-1,-2.715428238E0,3.621788764E-1,2.909259466E0
3.810992501E-1,7.973957621E-1,-2.564531482E0,-2.095571923E-1,2.693803249E0
3.910622500E-1,5.429639670E-1,-2.209256998E0,4.200464308E-2,2.275388043E0
4.010242500E-1,-1.012144624E0,-1.520741069E0,4.413092458E-1,1.879320087E0
4.109872500E-1,-7.035773331E-1,-1.400790264E0,-1.503243130E-1,1.574748179E0
4.209488750E-1,-1.598285528E0,-1.223496692E0,-2.446556890E-1,2.027638328E0
4.309108750E-1,-2.936337215E0,-1.074899354E0,1.626824033E-1,3.131126063E0
4.408738750E-1,-1.948553480E0,-1.032702265E0,3.021238786E-1,2.225896105E0
4.508358750E-1,-5.870247469E-1,-1.421035664E0,2.486440748E-1,1.557486529E0
4.607988750E-1,3.611445770E-1,-1.997972100E0,1.595313388E-1,2.036607023E0
4.707608750E-1,6.183600122E-1,-2.490538184E0,2.353504300E-3,2.566155703E0
4.807238750E-1,7.647134080E-1,-3.801902594E0,-2.787291688E-1,3.888050910E0
4.906858751E-1,4.106577028E-1,-4.816424623E0,1.088348097E-1,4.835124705E0
5.006488750E-1,3.803300408E-2,-5.840931065E0,3.597224611E-1,5.852121194E0
5.106108750E-1,2.374966140E-1,-7.112305198E0,2.179871231E-1,7.119607310E0
5.205738751E-1,-3.522440367E-2,-7.445668411E0,6.248568535E-2,7.446013920E0
5.305358750E-1,-1.942473179E-1,-6.397652069E0,7.577406764E-3,6.400604771E0
5.404988750E-1,2.692420796E-1,-4.653084700E0,2.525131774E-1,4.667703014E0
5.504608750E-1,6.463218360E-1,-3.240133689E0,-6.403110445E-2,3.304587451E0
5.604238750E-1,9.339074168E-1,-2.334582418E0,3.231358480E-1,2.535128183E0
5.703858751E-1,1.586315546E0,-1.475949205E0,-1.441250950E-1,2.171542104E0
5.803488750E-1,1.708850236E0,-1.051894946E0,8.617977262E-2,2.008501696E0
5.903108750E-1,1.835655001E0,-1.050851803E0,6.516078651E-2,2.116167461E0
6.002738751E-1,1.640119432E0,-9.324024897E-1,-1.363827968E-1,1.891551327E0
6.102358750E-1,1.089773794E0,-6.818391395E-1,3.241854233E-1,1.325747986E0
6.201988750E-1,8.559122843E-1,-5.637184763E-1,-1.439292133E-1,1.034929938E0
6.301608750E-1,3.629077318E-1,-8.722208997E-1,1.645687151E-1,9.589338776E-1
6.401238750E-1,-3.110341947E-1,-1.233211987E0,-1.924634421E-1,1.286311103E0
6.500858751E-1,-2.065521620E-1,-1.373673802E0,-2.527283549E-2,1.389345970E0
6.600488750E-1,-3.026665368E-1,-1.416385227E0,2.318929714E-1,1.466808949E0
6.700108750E-1,1.603680206E-1,-1.626011855E0,-2.652565992E-1,1.655292578E0
6.799738751E-1,3.227514521E0,-3.599610567E0,4.811053956E-1,4.858550053E0
6.899358750E-1,2.754282986E0,-3.123202533E0,3.206998980E-1,4.176519753E0
6.998988750E-1,3.184954392E0,-3.146516551E0,-5.567958480E-1,4.511598664E0
7.098608750E-1,1.971124609E0,-2.517936775E0,8.174512732E-1,3.300540018E0
7.198238750E-1,1.454218466E0,-2.539502476E0,-5.601562428E-1,2.979530028E0
7.297858751E-1,3.650064437E-1,-1.680463758E0,4.947679996E-1,1.789408707E0
7.397478750E-1,2.677441509E-1,-1.508297464E0,-5.889491022E-2,1.533009061E0
7.497108750E-1,1.123350114E0,-9.179190827E-1,-1.400004691E-1,1.457426174E0
7.596728751E-1,7.185147033E-1,-5.521753782E-1,2.521143973E-1,9.405969894E-1
7.696358750E-1,5.053280711E-1,-4.881871046E-1,-1.630864459E-1,7.213045802E-1
7.795978750E-1,9.181769449E-1,-6.671262293E-1,1.674970007E-1,1.147240844E0
7.895608750E-1,6.959043974E-1,-6.093713434E-1,1.298654902E-1,9.340671336E-1
7.995228750E-1,3.831981183E-1,-7.207005387E-1,-2.000116128E-1,8.403896177E-1
8.094858751E-1,2.674249295E-1,-4.192511364E-1,1.609756011E-1,5.226860936E-1
8.194478750E-1,6.661702826E-1,-3.041831218E-1,-2.485820943E-1,7.733713691E-1
8.294108750E-1,-1.785271518E-1,-9.699269231E-1,-3.636324942E-2,9.868903008E-1
8.393728751E-1,-4.424746690E-1,-8.637199983E-1,3.337432820E-1,1.026245900E0
8.493358750E-1,1.780437332E-1,-5.449823528E-1,1.093487799E-1,5.836629948E-1
8.592978750E-1,3.480838707E-1,-4.382518464E-1,1.039050221E-2,5.597633647E-1
8.692608750E-1,1.361874998E-1,-9.144030789E-1,-2.094589591E-1,9.479203982E-1
8.792228750E-1,-1.107109710E-1,-1.208358616E0,2.249189973E-1,1.234089146E0
8.891858751E-1,1.840539034E-1,-1.537905132E0,7.771885157E-2,1.550828248E0
8.991478750E-1,1.728186430E-1,-1.546892595E0,-1.756445110E-2,1.556615397E0
9.091108750E-1,1.445233178E-1,-1.721889966E0,2.737064105E-1,1.749487709E0
9.190728751E-1,2.855516269E-1,-1.861892627E0,-2.450679177E-1,1.899537357E0
9.290358750E-1,1.588034518E-1,-1.763060211E0,1.271330863E-1,1.774757072E0
9.389978750E-1,-4.536422296E-1,-2.235587887E0,-7.342641056E-2,2.282331245E0
9.489608750E-1,-3.095448358E-1,-2.193048517E0,2.365356606E-1,2.227381629E0
9.589228750E-1,2.329588019E0,-1.840796897E0,1.490923047E-1,2.972834013E0
9.688858751E-1,2.972534111E0,-1.651312172E0,-2.020353341E-1,3.406407082E0
9.788478750E-1,2.346442618E0,-1.157896049E0,2.015231180E-1,2.624333779E0
9.888108750E-1,1.872702229E0,-1.291866431E0,5.244777024E-2,2.275672051E0
9.987728751E-1,1.326294106E0,-1.013097939E0,1.937691253E-1,1.680169623E0
1.008735875E0,5.354524511E-1,-9.091236278E-1,-3.321785671E-1,1.106145424E0
1.018697875E0,2.341973043E-1,-1.398502249E0,-1.182663685E-1,1.422899804E0
1.028660875E0,9.455408909E-1,-7.699319749E-1,6.467231011E-1,1.380251279E0
1.038622875E0,1.524385493E0,-6.577019429E-2,-1.229722077E-1,1.530751127E0
1.048584875E0,2.862166746E0,3.246238182E-1,-6.349433005E-1,2.949666439E0
1.058547875E0,2.907056698E0,4.104543294E-1,9.775129545E-1,3.094346938E0
1.068509875E0,2.967681507E0,3.094920281E-1,-2.759768844E-1,2.996511652E0
1.078472875E0,2.168503075E0,7.305259806E-1,-4.817567754E-1,2.338410440E0
1.088434875E0,4.004776638E-1,8.499866429E-1,7.884005517E-1,1.226554150E0
1.098397875E0,-2.999750999E-1,4.520005507E-2,-7.774434543E-1,8.345336603E-1
1.108359875E0,1.814984144E-1,9.437920618E-1,3.384900516E-1,1.018950757E0
1.118322875E0,1.328311432E-1,1.210236961E-1,2.542638338E-1,3.113534082E-1
1.128284875E0,-1.327367837E-1,-5.187777635E-3,-4.804955310E-1,4.985197309E-1
1.138247875E0,2.098831746E-1,-1.020469049E-1,4.054383320E-1,4.678084638E-1
1.148209875E0,-9.179679983E-2,4.602836799E-3,-3.160981393E-1,3.291897207E-1
1.158172875E0,6.902945057E-2,-3.727583533E-2,1.156082243E-1,1.397133296E-1
1.168134875E0,9.023073276E-2,-4.865438908E-2,1.624847674E-1,1.921201040E-1
1.178097875E0,-3.979910532E-2,1.469999151E-2,-1.406664670E-1,1.469255371E-1
1.188059875E0,8.224761145E-2,-4.151386069E-2,2.159236407E-1,2.347575107E-1
1.198022875E0,-5.009512475E-2,-8.930160105E-4,-1.551786715E-1,1.630666707E-1
1.207984875E0,5.190458674E-2,-3.811732275E-2,7.340653002E-2,9.765006436E-2
1.217947875E0,1.863593509E-2,-1.593558127E-2,3.373784959E-2,4.170711357E-2
1.227909875E0,5.090010362E-3,-4.519276433E-3,5.318978190E-2,5.362354860E-2
1.237872875E0,4.896552034E-2,-2.776420617E-2,1.260952055E-1,1.380886461E-1
1.247834875E0,3.009054833E-3,-1.446856968E-2,-9.350984216E-2,9.467039928E-2
1.257797875E0,5.192113254E-2,-4.324989902E-2,-1.491507769E-2,6.920128114E-2
1.267759875E0,3.214178356E-2,-3.438480746E-2,-3.677664757E-2,5.973216086E-2
1.277722875E0,5.950083707E-2,-4.556958083E-2,9.136099041E-2,1.181683836E-1
1.287684875E0,6.074942775E-2,-5.763565751E-2,8.791522622E-2,1.214143690E-1
1.297647875E0,3.895979689E-2,-4.236179832E-2,-2.854376793E-2,6.424277717E-2
1.307609875E0,4.021273187E-2,-4.611185526E-2,-1.167045772E-1,1.317699713E-1
1.317572875E0,1.623940351E-2,-4.331231805E-2,-1.354121590E-1,1.430948214E-1
1.327534875E0,4.696474933E-2,-3.603163920E-2,2.238442791E-1,2.315388260E-1
1.337496875E0,5.804355105E-2,-1.920463163E-2,2.638029814E-1,2.707949126E-1
1.347459875E0,3.580405004E-2,-1.711909426E-2,1.028823441E-1,1.102713477E-1
1.357421875E0,-1.152000959E0,6.813533820E-2,-4.387569362E-1,1.234607745E0
1.367384875E0,-5.511676691E0,-8.173397376E-1,2.484575486E-1,5.577486472E0
1.377346875E0,-2.860481578E0,-7.539873487E-1,-3.033933091E-1,2.973701277E0
1.387309875E0,-2.716164987E0,-6.285391375E-1,3.342250925E-1,2.807903150E0
1.397271875E0,-2.437812671E0,-1.179864988E0,6.706750506E-1,2.790128498E0
1.407234875E0,-5.239162235E-1,-5.052321402E-1,-7.673382962E-1,1.057617977E0
1.417197333E0,-3.929748456E-1,-1.743294356E-2,1.372470152E-1,4.166171864E-1
1.427160333E0,-2.381148108E-1,-2.023454375E-1,1.478088409E-1,3.456729562E-1
1.437122333E0,-3.126414116E-1,-6.667907453E-1,4.786589205E-2,7.380011476E-1
1.447085333E0,-5.693020921E-1,-1.212969731E0,2.324928957E-1,1.359946097E0
1.457047333E0,-8.331188875E-1,-1.902983643E0,-1.168712229E-1,2.080647185E0
1.467010333E0,-1.288939022E0,-1.969259640E0,-8.748604059E-3,2.353598069E0
1.476972333E0,-1.463881867E0,-2.302517603E0,-6.157118082E-3,2.728474912E0
1.486935333E0,-1.908965929E0,-3.071243297E0,-1.072279948E-1,3.617759549E0
1.496897333E0,-2.499433261E0,-3.559237297E0,7.410468757E-2,4.349807843E0
1.506860333E0,-1.669316773E0,-2.162664484E0,9.001613081E-2,2.733466491E0
1.516822333E0,-4.593950127E-1,-1.473091232E0,3.145538896E-1,1.574797036E0
1.526785333E0,1.185329796E0,-1.066772382E0,3.792276031E-1,1.639153323E0
1.536747333E0,2.787159541E0,-1.152825417E0,-5.003304559E-1,3.057383736E0
1.546710333E0,1.944934784E0,-1.295393325E0,-2.567167407E-1,2.350897417E0
1.556672333E0,1.268764959E0,-1.598679338E0,7.048929566E-1,2.159262426E0
1.566635333E0,9.047202359E-1,-2.064673920E0,-2.280466729E-1,2.265701301E0
1.576597333E0,-3.357368536E-1,-2.310390148E0,1.875932962E-1,2.342181273E0
1.586559333E0,-1.889131955E-1,-2.552705196E0,2.082672966E-1,2.568144716E0
1.596522333E0,-6.898075788E-1,-2.659827064E0,-1.626724631E-1,2.752630894E0
1.606484333E0,-1.356747282E0,-2.713806220E0,1.558470082E-1,3.038057879E0
1.616447333E0,-1.794406257E0,-2.775570944E0,1.622163802E-1,3.309078729E0
1.626409333E0,-9.132261074E-1,-3.031717874E0,7.341763973E-3,3.166283166E0
1.636372333E0,-2.184915917E-1,-3.214790980E0,5.514684498E-2,3.222679133E0
1.646334333E0,5.914979035E-1,-3.015562601E0,3.082476676E-2,3.073180395E0
1.656297333E0,1.513133696E0,-3.027125470E0,-3.679418921E-2,3.384437325E0
1.666259333E0,2.133457934E0,-3.174696914E0,-4.664557815E-2,3.825247582E0
1.676222333E0,1.987120691E0,-2.853177237E0,4.650378317E-1,3.507923769E0
1.686184333E0,1.428065625E0,-2.447523435E0,2.920187205E-1,2.848686948E0
1.696147333E0,2.237298929E0,-2.857077622E0,1.495653445E-1,3.631909804E0
1.706109333E0,3.336979660E0,-3.334139960E0,-1.028321165E0,4.827977521E0
1.716072333E0,1.583369427E0,-2.223939211E0,3.900391048E-1,2.757733645E0
1.726034333E0,8.921775929E-1,-1.990900039E0,7.994804406E-1,2.323538852E0
1.735997333E0,1.431531416E0,-2.205584070E0,-4.368103981E-2,2.629789215E0
1.745959333E0,1.743123837E0,-2.118598112E0,2.614594173E-1,2.755957129E0
1.755922333E0,2.932785908E0,-2.170618890E0,-7.854097009E-1,3.732249716E0
1.765884333E0,3.139357220E0,-1.294238354E0,5.073997396E-1,3.433376060E0
1.775847333E0,3.178457259E0,-1.000044981E0,4.847634137E-1,3.367146578E0
1.785809333E0,2.797383982E0,-7.899260172E-1,-7.275006312E-1,2.996430781E0
1.795772333E0,3.235213257E0,-7.319376446E-2,4.582755268E-1,3.268329635E0
1.805734333E0,2.817791349E0,2.366198788E-1,-6.390252417E-1,2.899015404E0
1.815697333E0,1.246655321E0,8.015870462E-1,4.518564534E-1,1.549472664E0
1.825659333E0,1.832485811E0,2.838541985E-1,2.112727654E-1,1.866336956E0
1.835622333E0,3.259053233E0,2.187411764E-1,-2.370911461E-1,3.274979067E0
1.845584333E0,2.835781185E0,8.879844815E-1,2.942851013E-1,2.986096966E0
1.855546333E0,2.466320771E0,9.404810759E-1,-3.624630511E-2,2.639802378E0
1.865509333E0,1.041203239E0,1.099400869E0,-1.959828812E-1,1.526825382E0
1.875471333E0,1.442020498E-1,8.717053214E-1,7.030282795E-2,8.863446769E-1
1.885434333E0,1.189701175E-1,8.677326500E-1,-6.937487483E-2,8.785936001E-1
1.895396333E0,1.187936046E-1,8.575164679E-1,1.927236432E-1,8.868984248E-1
1.905359333E0,8.403039096E-2,7.675612944E-1,-3.540664494E-2,7.729586520E-1
1.915321333E0,6.980829969E-2,8.708423455E-1,-9.349171579E-2,8.786240893E-1
1.925284333E0,1.011515866E-1,7.373469038E-1,-5.217704415E-2,7.460794488E-1
1.935246333E0,2.053740394E-2,5.005231582E-1,-8.436362743E-2,5.079984631E-1
1.945209333E0,3.206968236E-2,1.301708976E-2,1.403191423E-1,1.445246376E-1
1.955171333E0,3.846036702E-2,4.505926508E-2,1.093359160E-1,1.243538489E-1
1.965134333E0,8.199093696E-3,6.258194514E-2,-1.107082576E-1,1.274364284E-1
1.975096333E0,7.563467550E-2,1.725321477E-2,-1.236101389E-2,7.855617240E-2
1.985059333E0,2.824572667E-2,5.291498104E-2,-7.837607861E-2,9.869460974E-2
1.995021333E0,6.985165131E-2,3.514423287E-2,1.362775469E-1,1.571175995E-1
2.004984333E0,2.889966236E-2,4.337855604E-2,1.000540459E-1,1.128171162E-1
2.014946333E0,6.879279365E-2,2.222696604E-2,4.886108816E-2,8.725762095E-2
2.024909333E0,8.368494842E-2,2.891683856E-2,-2.283980906E-2,9.143856420E-2
2.034871333E0,6.643570336E-2,2.301964749E-2,-4.050424755E-2,8.114308917E-2
2.044834333E0,6.726341785E-2,2.434438901E-2,8.957525074E-2,1.146330764E-1
2.054796333E0,2.825468707E-2,3.091739031E-2,8.209139943E-2,9.215861449E-2
2.064759333E0,3.660648674E-2,2.098437790E-2,5.395225883E-2,6.849251944E-2
2.074721333E0,3.461048258E-2,2.549502969E-2,-4.543812811E-2,6.255002422E-2
2.084684333E0,3.668645427E-2,2.585594907E-2,-5.681271672E-2,7.240242268E-2
2.094646333E0,3.050065742E-2,4.111113371E-2,-2.043718815E-2,5.511890853E-2
2.104608333E0,1.589359324E-2,3.380543975E-2,3.045990050E-2,4.819978839E-2
2.114571333E0,-4.712910634E-3,5.131587720E-2,-1.259677362E-1,1.361007030E-1
2.124533333E0,1.625903508E-2,4.736544348E-2,-2.120369965E-1,2.178704416E-1
2.134496333E0,5.673686737E-2,5.233824458E-2,3.425632221E-1,3.511522819E-1
2.144458333E0,6.847719932E-3,5.997772319E-2,2.699677008E-1,2.766347376E-1
2.154421333E0,7.038118064E-2,4.725719690E-2,8.331054389E-2,1.188587396E-1
2.164383333E0,-7.414958688E-1,1.210071595E-1,-5.612613666E-1,9.378023127E-1
2.174346333E0,-5.292075736E0,4.484783708E-1,-2.349446332E-1,5.316239030E0
2.184308333E0,-7.091052908E0,1.274372146E-1,4.006278276E-1,7.103504363E0
2.194271333E0,-5.746047712E0,1.073408095E-1,1.843013138E-1,5.750004638E0
2.204233333E0,-3.833081410E0,-6.009972900E-1,1.866665125E-1,3.884398953E0
2.214196333E0,-3.034185106E0,-1.604064477E0,-1.518153530E-1,3.435454847E0
2.224158333E0,-1.868952117E0,-2.032700029E0,6.235119939E-2,2.762017215E0
2.234121333E0,-1.162593264E0,-2.429729188E0,2.556899697E-1,2.705657847E0
2.244083333E0,4.272745395E-1,-2.422082638E0,3.266342372E-1,2.481075928E0
2.254046333E0,1.454129735E0,-2.527018378E0,-4.625720608E-1,2.951997304E0
2.264008333E0,1.568931190E0,-2.630267050E0,-1.426036495E-1,3.065972217E0
2.273971333E0,8.977442884E-1,-2.666407813E0,4.194476759E-1,2.844575853E0
2.283933333E0,8.626348282E-1,-3.019442229E0,1.715502906E-1,3.144932388E0
2.293896333E0,1.309677196E0,-3.350526782E0,-8.666859984E-2,3.598443486E0
2.303858333E0,1.982980570E0,-3.188575281E0,6.284002662E-3,3.754898634E0
2.313821333E0,1.696343627E0,-2.970791641E0,2.041847706E-1,3.427079820E0
2.323783333E0,1.661917560E0,-2.773176802E0,2.292243022E-1,3.241145373E0
2.333745333E0,1.328179102E0,-2.669251606E0,1.832026219E-1,2.987059937E0
2.343708333E0,7.570865922E-1,-1.920633464E0,-2.468302685E-1,2.079167668E0
2.353670333E0,-6.232732630E-2,-1.632660724E0,-3.423486292E-2,1.634208604E0
2.363633333E0,-2.500103133E-1,-1.259673416E0,2.611641330E-1,1.310530036E0
2.373595333E0,-1.935479361E-1,-1.461895276E0,-3.549903095E-2,1.475079246E0
2.383558333E0,-5.067230432E-2,-1.065622820E0,2.829549515E-1,1.103713360E0
2.393520333E0,3.460680431E-1,-4.765177432E-1,-7.876725733E-2,5.941687731E-1
2.403483333E0,6.630839029E-1,-7.825217611E-1,-2.519015586E-1,1.056160482E0
2.413445333E0,7.200846807E-1,-1.106009392E0,1.763052464E-1,1.331488739E0
2.423408083E0,1.325549024E0,-9.691388646E-1,6.620334506E-2,1.643378604E0
2.433370083E0,8.613618893E-1,-1.073166240E0,1.701545602E-1,1.386572269E0
2.443333083E0,8.498322033E-1,-7.230580629E-1,-1.330849671E-1,1.123716755E0
2.453295083E0,3.846187725E-1,-4.024349096E-1,-9.920093715E-2,5.654434389E-1
2.463258083E0,-5.594368800E-2,-2.140969888E-1,-5.812190831E-2,2.287911123E-1
2.473220083E0,1.651543320E-2,-2.925365828E-1,1.342918324E-1,3.223115078E-1
2.483183083E0,-6.415837640E-1,-6.975710001E-1,2.250727791E-1,9.741112782E-1
2.493145083E0,-8.671659087E-1,-6.507615537E-1,1.046979046E-1,1.089233200E0
2.503108083E0,-6.589224395E-1,-9.756038386E-1,2.005904871E-1,1.194243767E0
2.513070083E0,-1.390152681E-2,-2.152363736E0,-7.580540872E-1,2.281996692E0
2.523033083E0,-3.342634832E-2,-2.051473246E0,7.172229803E-1,2.173492260E0
2.532995083E0,7.889862234E-1,-2.116972733E0,1.931914204E-1,2.267464605E0
2.542958083E0,9.471972609E-1,-2.182955930E0,-6.911689568E-1,2.477941438E0
2.552920083E0,2.507326125E0,-2.309948098E0,8.458576316E-1,3.512551729E0
2.562883083E0,2.547947025E0,-2.180320005E0,-1.926078683E-1,3.359006871E0
2.572845083E0,2.867561387E0,-1.984691465E0,-5.725231040E-1,3.534075724E0
2.582807083E0,2.776678407E0,-1.327277607E0,9.471477789E-1,3.220046232E0
2.592770083E0,3.251835430E0,-1.294369039E0,2.199927181E-1,3.506882043E0
2.602732083E0,3.918689910E0,-1.088156162E0,-7.155366433E-1,4.129431817E0
2.612695083E0,3.353232873E0,-3.623515885E-1,6.480077344E-1,3.434440770E0
2.622657083E0,3.141097351E0,-4.436548929E-1,-4.583234739E-1,3.205211794E0
2.632620083E0,1.982836290E0,1.964098193E-1,-7.496013522E-2,1.993949746E0
2.642582083E0,2.623940765E-1,6.261598324E-1,5.096842468E-1,8.489433541E-1
2.652545083E0,-8.817237580E-2,3.389942278E-1,-4.927062714E-1,6.045253710E-1
2.662507083E0,2.237920196E-1,1.036747588E0,4.553735536E-1,1.154250191E0
2.672470083E0,-7.276427277E-2,4.836029241E-1,-4.908714151E-1,6.929077671E-1
2.682432083E0,6.359237141E-2,7.330463498E-1,1.793159777E-1,7.573342462E-1
2.692395083E0,6.464094620E-2,4.633332952E-1,6.674421251E-2,4.725579163E-1
2.702357083E0,-3.831659860E-2,8.891822470E-2,-2.025884807E-2,9.891932742E-2
2.712320083E0,1.121450555E-1,-8.146236693E-2,3.288456541E-1,3.568642528E-1
2.722282083E0,-8.341118909E-2,1.848281113E-2,-2.229414690E-1,2.387507892E-1
2.732245083E0,7.638013611E-2,-4.343671756E-2,1.281054783E-1,1.553437710E-1
2.742207083E0,-3.028529716E-2,-1.058930755E-3,-1.654574919E-1,1.682096970E-1
2.752170083E0,8.842735095E-2,-5.195040973E-2,1.957583481E-1,2.209967699E-1
2.762132083E0,3.162206202E-2,-2.372734331E-2,1.910987020E-2,4.391046305E-2
2.772095083E0,5.799623885E-2,-4.575464521E-2,1.086348349E-1,1.313719096E-1
2.782057083E0,3.157360779E-2,-4.653382324E-2,-1.145609879E-1,1.276186090E-1
2.792020083E0,6.313839450E-2,-5.533687949E-2,-7.518642247E-2,1.127014872E-1
2.801982083E0,6.369620974E-2,-3.592967838E-2,-9.480090737E-3,7.374293894E-2
2.811944083E0,7.412080853E-2,-4.803032672E-2,1.114689803E-1,1.422186349E-1
2.821907083E0,5.760042803E-2,-3.087264083E-2,8.168150961E-2,1.046078308E-1
2.831869083E0,4.434113564E-2,-3.276361210E-2,-1.801293254E-2,5.800048557E-2
2.841832083E0,2.138009735E-2,-2.463996576E-2,-1.873108757E-1,1.901304831E-1
2.851794083E0,2.894257088E-2,-2.919268096E-2,-3.701813757E-2,5.531932339E-2
2.861757083E0,2.035207005E-2,-4.592951350E-3,1.152106136E-1,1.170845312E-1
2.871719083E0,5.367902940E-2,-1.132777434E-2,4.307737327E-1,4.342531122E-1
2.881682083E0,-2.838264973E-1,-1.405757072E-1,-1.326382399E-2,3.170093674E-1
2.891644083E0,-5.100717418E0,-1.748688413E-1,-4.339937943E-1,5.122133140E0
2.901607083E0,-5.729088448E0,2.586767640E-1,2.215808219E-1,5.739204315E0
2.911569083E0,-4.529066426E0,1.552766489E-1,-8.731881022E-2,4.532568599E0
2.921532083E0,-3.108006788E0,-1.132556848E0,4.173853630E-1,3.334156828E0
2.931494083E0,-2.568962210E0,-1.897391658E0,-9.713160753E-2,3.195167678E0
2.941457083E0,-2.873223831E0,-2.144758848E0,-3.246608019E-2,3.585590571E0
2.951419083E0,-2.575202943E0,-1.773427178E0,3.218950689E-1,3.143299316E0
2.961382083E0,-1.724517851E0,-1.963874354E0,-4.985365301E-1,2.660695956E0
2.971344083E0,-1.845777116E0,-2.365160140E0,1.605429071E-1,3.004438329E0
2.981307083E0,-1.675307391E0,-2.622974111E0,5.815880424E-1,3.166211094E0
2.991269083E0,-4.859944353E-1,-3.488239820E0,-3.664292175E-1,3.540943096E0
3.001232083E0,6.718791385E-1,-3.282532142E0,3.611532748E-1,3.369995628E0
3.011194083E0,1.211034375E0,-3.794866347E0,-1.224640846E-1,3.985299525E0
3.021157083E0,2.101963661E0,-4.244814854E0,-1.522907317E-1,4.739187361E0
3.031119083E0,1.864888741E0,-4.181330172E0,6.241803306E-1,4.620706992E0
3.041081083E0,1.730557732E0,-4.229096369E0,-3.050509948E-1,4.579644339E0
3.051044083E0,9.882417912E-1,-3.619786970E0,1.635279107E-1,3.755824932E0
3.061006083E0,1.146941144E0,-3.337488953E0,2.886618340E-1,3.540851897E0
3.070969083E0,6.106721661E-1,-2.910861481E0,-1.534367859E-2,2.974268058E0
3.080931083E0,3.849538910E-1,-2.350031639E0,1.391578853E-1,2.385414664E0
3.090894083E0,-1.578279718E-1,-2.148698701E0,8.181248724E-2,2.156040134E0
3.100856083E0,-4.384293825E-1,-1.899541095E0,1.880698442E-1,1.958531838E0
3.110819083E0,-3.435615245E-1,-1.938061090E0,-7.514549196E-2,1.969711185E0
3.120781083E0,-2.481276926E-1,-2.346744480E0,-1.981130219E-1,2.368127061E0
3.130744083E0,-1.803707058E-1,-2.538888518E0,2.323508084E-1,2.555870771E0
3.140706083E0,1.163489934E-1,-2.826959491E0,2.758739734E-1,2.842770392E0
3.150669083E0,9.798745718E-1,-3.012637532E0,-1.777869308E-1,3.172971362E0
3.160631083E0,5.655748576E-1,-2.839318751E0,3.257249951E-2,2.895283554E0
3.170594083E0,4.906720251E-1,-2.672683922E0,1.643494445E-1,2.722316867E0
3.180556083E0,1.647378604E0,-2.730189826E0,7.965486467E-2,3.189692407E0
3.190519083E0,2.994282829E0,-2.678681411E0,1.503336686E-1,4.020405947E0
3.200481083E0,3.414138933E0,-2.788413184E0,2.515507257E-1,4.415299594E0
3.210444083E0,4.105304089E0,-3.060858350E0,-1.507944292E-1,5.122998581E0
3.220406083E0,4.190398034E0,-2.680457211E0,2.385576278E-1,4.980079948E0
3.230369083E0,3.989455545E0,-2.363706376E0,2.634468859E-1,4.644595530E0
3.240331083E0,4.165551753E0,-2.872086255E0,-5.886935788E-1,5.093845403E0
3.250293083E0,3.046239726E0,-1.434540539E0,3.637003219E-1,3.386703552E0
3.260256083E0,2.091731180E0,-6.076869798E-1,6.516312540E-1,2.273597608E0
3.270218083E0,3.817848536E0,-4.564758634E-1,-4.028509390E-1,3.866086721E0
3.280181083E0,4.182577968E0,2.376580337E-1,-5.226697433E-1,4.221803342E0
3.290143083E0,2.997211407E0,9.060463844E-1,8.426095033E-1,3.242558719E0
3.300106083E0,3.316999140E0,9.448723349E-1,-7.930870950E-1,3.538962300E0
3.310068083E0,1.652797950E0,1.623919429E0,5.648673445E-1,2.384938257E0
3.320031083E0,9.201258950E-1,1.026987342E0,-1.469305891E-1,1.386695086E0
3.329993083E0,3.348435909E-2,9.237221519E-1,-2.836279660E-1,9.668653677E-1
3.339956083E0,3.749693683E-1,1.154797244E0,2.616786879E-1,1.242028356E0
3.349918083E0,8.811398587E-2,8.599162383E-1,-2.996727258E-1,9.148900229E-1
3.359881083E0,1.692739513E-1,1.108850774E0,2.933893079E-1,1.159431324E0
3.369843083E0,6.011700113E-2,6.855124334E-1,-1.314418995E-1,7.005842727E-1
3.379806083E0,1.008690016E-1,8.945816025E-1,4.713031232E-2,9.014832585E-1
3.389768083E0,7.910498885E-2,6.988918861E-1,-7.771709740E-2,7.076350860E-1
3.399731083E0,9.826657036E-2,5.368938994E-1,6.257690191E-3,5.458484558E-1
3.409693083E0,5.660350517E-2,3.754860429E-1,2.841103613E-2,3.807898530E-1
3.419656125E0,3.479017025E-2,1.765499158E-2,5.430601537E-2,6.686701713E-2
3.429618125E0,7.091816518E-2,1.970531775E-2,1.542992502E-1,1.709559719E-1
3.439581125E0,1.349949419E-2,5.606781799E-2,-1.075080764E-1,1.219992748E-1
3.449543125E0,7.505904910E-2,2.113156328E-2,2.676504493E-2,8.244253422E-2
3.459506125E0,2.161929872E-2,3.928307483E-2,-9.298534691E-2,1.032319175E-1
3.469468125E0,3.885430490E-2,2.230553800E-2,1.158315879E-1,1.241940047E-1
3.479431125E0,-2.608927125E-3,5.188376974E-2,5.206185400E-2,7.354705097E-2
3.489393125E0,3.672318666E-2,3.174930291E-2,3.619426489E-2,6.055274960E-2
3.499355125E0,5.064099887E-2,2.979445081E-2,-7.248150051E-2,9.330481221E-2
3.509318125E0,3.851804432E-2,3.444839593E-2,-5.661391139E-2,7.665159283E-2
3.519280125E0,3.727946243E-2,3.020112466E-2,-5.271966577E-2,7.128274271E-2
3.529243125E0,2.692389276E-2,4.512045985E-2,1.459172666E-1,1.550890086E-1
3.539205125E0,1.302481905E-2,-1.465878692E-3,-1.024122280E-1,1.032475625E-1
3.549168125E0,-3.060651943E-7,4.787342034E-2,1.775050950E-1,1.838475540E-1
3.559130125E0,-6.209974719E-1,-7.777619082E-1,1.772074717E-1,1.010917373E0
3.569093125E0,-3.232047575E0,-2.151539133E0,1.376750314E-1,3.885126327E0
3.579055125E0,-5.457573574E0,-2.903925221E0,-9.642058611E-4,6.182062110E0
3.589018125E0,-4.926767430E0,-2.699303956E0,-2.681983334E-1,5.624163004E0
3.598980125E0,-4.357571684E0,-1.560072073E0,-1.222828209E-1,4.630033363E0
3.608943125E0,-2.526488620E0,-9.605622417E-1,1.738201797E-1,2.708512142E0
3.618905125E0,-2.148969720E0,-2.005520124E0,3.942806751E-1,2.965744270E0
3.628868125E0,-1.127380819E0,-2.149335025E0,4.221344715E-1,2.463498746E0
3.638830125E0,-4.316105058E-1,-2.346601223E0,1.906262469E-1,2.393567065E0
3.648793125E0,8.160274762E-1,-2.331825310E0,-1.170057088E-1,2.473257053E0
3.658755125E0,1.082101370E0,-2.689435903E0,-8.888966471E-1,3.032185037E0
3.668718125E0,6.846387132E-1,-2.170002593E0,5.453809136E-1,2.339889263E0
3.678680125E0,4.274746240E-1,-1.866790986E0,5.402634305E-1,1.989856205E0
3.688643125E0,4.282443368E-1,-1.512397677E0,2.737251216E-1,1.595514146E0
3.698605125E0,2.206971760E0,-1.288075827E0,-5.387829155E-1,2.611541827E0
3.708567125E0,2.886363986E0,-7.853259395E-1,-4.017352903E-1,3.018149290E0
3.718530125E0,3.087566969E0,-1.973102722E-1,9.332659042E-1,3.231560982E0
3.728492125E0,4.199590442E0,-7.193086090E-1,-2.827777809E-1,4.270120376E0
3.738455125E0,3.689969345E0,-7.859579504E-1,-2.783146012E-1,3.782996522E0
3.748417125E0,2.320441365E0,-1.163729378E0,6.661633390E-1,2.680016378E0
3.758380125E0,1.639716851E0,-2.248971433E0,-4.674427915E-1,2.822241418E0
3.768342125E0,1.215653493E-1,-2.563782454E0,2.488610065E-1,2.578699363E0
3.778305125E0,-9.171726856E-1,-2.657490809E0,2.415777147E-1,2.821670237E0
3.788267125E0,-1.722855780E0,-2.994136649E0,-1.293322241E-1,3.456850175E0
3.798230125E0,-1.863722660E0,-2.761733216E0,3.795427680E-1,3.353309592E0
3.808192125E0,-1.232139608E0,-2.726384458E0,-2.311503750E-1,3.000795015E0
3.818155125E0,-7.883260728E-1,-2.372862969E0,1.563346660E-1,2.505269885E0
3.828117125E0,-6.912306997E-2,-2.226009125E0,-2.922847688E-2,2.227273878E0
3.838080125E0,-1.223944434E-2,-2.930664246E0,-1.313448358E-1,2.933631571E0
3.848042125E0,1.110926937E-1,-2.843813213E0,3.728734338E-1,2.870304823E0
3.858005125E0,7.066158387E-1,-2.353381216E0,7.560344589E-1,2.570855343E0
3.867967125E0,1.992090824E0,-2.327667208E0,-7.951119858E-1,3.165227252E0
3.877930125E0,2.097035774E0,-1.453258354E0,-2.640316075E-1,2.565001280E0
3.887892125E0,4.289361574E0,-5.272595152E-1,1.327453024E0,4.520924335E0
3.897855125E0,6.342538553E0,-1.008391443E0,-1.156432491E0,6.525487315E0
3.907817125E0,6.970430111E0,-6.636564915E-1,-1.457669932E-1,7.003469418E0
3.917780125E0,6.635682862E0,1.478235685E-1,1.349435631E0,6.773117110E0
3.927742125E0,4.766290011E0,-6.081594348E-1,-9.761265796E-1,4.903080814E0
3.937704125E0,1.840525878E0,1.768604578E-1,-1.383989167E-1,1.854176203E0
3.947667125E0,6.737951980E-1,1.033903941E0,1.158169699E0,1.692428545E0
3.957629125E0,1.759879984E-1,-4.193929679E-1,-1.238083595E0,1.318981890E0
3.967592125E0,9.356965735E-2,1.283150571E0,7.508193272E-1,1.489617512E0
3.977554125E0,4.203729978E-1,3.897971763E-1,-2.993827039E-1,6.467497965E-1
3.987517125E0,-5.447638862E-2,6.336810328E-1,-2.407380545E-1,6.800545119E-1
3.997479125E0,4.201523385E-1,1.270660480E0,7.115792477E-1,1.515734498E0
4.007442125E0,-3.794005345E-1,2.224481650E-1,-7.707653493E-1,8.874160103E-1
4.017404125E0,5.530921120E-1,1.148967570E0,6.310350215E-1,1.422758785E0
4.027367125E0,3.080813874E-2,3.738389553E-1,-3.942186946E-1,5.441627377E-1
4.037329125E0,-1.033515923E-2,7.568935610E-1,-2.049449086E-3,7.569668939E-1
4.047292125E0,2.141045354E-1,3.665087396E-1,2.925964254E-1,5.155405672E-1
4.057254125E0,-7.706056472E-2,4.998940709E-1,-2.891547543E-1,5.826172712E-1
4.067217125E0,1.130614147E-1,1.267861272E-1,2.337278277E-1,2.889399643E-1
4.077179125E0,8.608499290E-3,-8.131834270E-2,-8.002440870E-2,1.144145319E-1
4.087142125E0,2.490721549E-2,-1.325746514E-3,-3.616736770E-2,4.393410376E-2
4.097104125E0,6.245866025E-2,-4.579223184E-2,9.512016535E-2,1.226615612E-1
4.107067125E0,1.739930380E-2,-6.359340381E-3,2.902557850E-3,1.875104864E-2
4.117029125E0,8.113799265E-2,-3.801665928E-2,1.035021490E-1,1.368989959E-1
4.126992125E0,2.199873734E-2,-1.753526984E-2,-5.622624099E-2,6.287145862E-2
4.136954125E0,6.247872808E-2,-4.274192216E-2,2.670891166E-2,8.027346594E-2
4.146916125E0,3.528265199E-2,-1.553044232E-2,-3.541600049E-2,5.234838355E-2
4.156879125E0,7.052778130E-2,-2.661436949E-2,7.071447194E-2,1.033587400E-1
4.166841125E0,5.437539624E-2,-2.170681966E-2,4.398275614E-3,5.871298463E-2
4.176804125E0,4.746656834E-2,-3.105458060E-2,-3.692516685E-2,6.768256816E-2
4.186766125E0,-3.626196468E-2,7.363343854E-3,-2.549543899E-1,2.576254837E-1
4.196729125E0,2.417608422E-1,-1.934539970E-1,7.427606946E-1,8.047149826E-1
4.206691125E0,-1.069179188E-1,-1.257741934E0,-1.047476059E-1,1.266616862E0
4.216654125E0,-2.921892034E-1,-1.404448136E0,-4.123222589E-1,1.492601334E0
4.226616125E0,2.604001211E-1,-1.102136708E0,5.889496869E-1,1.276469851E0
4.236579125E0,-4.246834190E0,-1.785090619E0,-7.687691098E-1,4.670455556E0
4.246541125E0,-6.874776095E0,-2.911124313E0,4.661979192E-1,7.480276173E0
4.256504125E0,-6.065831936E0,-1.244320674E0,6.036139190E-2,6.192438495E0
4.266466125E0,-6.116928999E0,-5.035633083E-1,4.553717995E-1,6.154491032E0
4.276429125E0,-4.512182883E0,-7.703243961E-1,-3.467907590E-1,4.590583609E0
4.286391125E0,-3.068724317E0,-3.484666806E-1,-9.226146162E-2,3.089823642E0
4.296354125E0,-1.809371329E0,-4.389800440E-1,5.043925166E-2,1.862544550E0
4.306316125E0,-1.250679959E0,-1.719058890E0,2.782391721E-1,2.144010463E0
4.316279125E0,7.369766654E-2,-1.966431195E0,1.396905667E-1,1.972763657E0
4.326241125E0,1.792295997E0,-1.173762761E0,-1.529725170E-1,2.147893049E0
4.336204125E0,2.207833786E0,-1.260836281E0,4.098617506E-1,2.575310624E0
4.346166125E0,2.993977312E0,-2.372744417E0,-3.951770532E-1,3.840570416E0
4.356128125E0,3.142385201E0,-3.249239266E0,1.073759294E-1,4.521467698E0
4.366091125E0,1.889115363E0,-4.205729141E0,5.562684292E-1,4.643958336E0
4.376053125E0,7.239179691E-1,-4.847299384E0,-5.811933553E-1,4.935398085E0
4.386016125E0,1.981020218E-1,-4.645096234E0,6.395269328E-1,4.693096860E0
4.395978125E0,3.528546140E-2,-4.916166428E0,-5.447032213E-2,4.916594800E0
4.405941125E0,1.388416332E-1,-4.843627332E0,-4.188196850E-1,4.863683035E0
4.415903125E0,2.979039431E-1,-4.261955967E0,3.576887995E-1,4.287301797E0
4.425866083E0,9.973388345E-2,-3.902912075E0,3.262337029E-1,3.917792483E0
4.435828083E0,-4.061440543E-1,-3.389792882E0,4.039326739E-1,3.437849674E0
4.445791083E0,-2.758672856E-1,-2.844898164E0,3.408137351E-1,2.878489591E0
4.455753083E0,5.414766546E-1,-2.263180606E0,-2.331109464E-2,2.327171422E0
4.465716083E0,1.420338091E0,-2.151537817E0,-6.459506840E-1,2.657767401E0
4.475678083E0,9.916700868E-1,-2.458831073E0,1.991204971E-1,2.658741954E0
4.485641083E0,1.002489044E0,-2.580455205E0,8.474124062E-1,2.895140952E0
4.495603083E0,2.636602216E0,-3.246338170E0,-4.042431611E-1,4.201641976E0
4.505566083E0,2.526364952E0,-3.338552854E0,-2.296955878E-1,4.192995956E0
4.515528083E0,1.854488444E0,-2.812516868E0,1.020602256E-1,3.370429470E0
4.525491083E0,2.051562270E0,-2.172599342E0,2.245623171E-1,2.996585370E0
4.535453083E0,2.745128877E0,-1.560704888E0,3.997507453E-1,3.182975488E0
4.545416083E0,3.786148733E0,-1.151664891E0,-3.249940932E-2,3.957563703E0
4.555378083E0,4.744902651E0,-6.636230162E-1,-2.602736020E-1,4.798149541E0
4.565340083E0,4.938717969E0,-7.726538172E-2,2.453029758E-1,4.945409858E0
4.575303083E0,5.043540419E0,1.555082169E-1,-3.563696676E-1,5.058505916E0
4.585265083E0,4.582970153E0,8.015313515E-1,2.197214073E-1,4.657718908E0
4.595228083E0,3.818131834E0,1.009914569E0,1.813543171E-1,3.953599313E0
4.605190083E0,3.033397486E0,1.414192083E0,-5.250097990E-2,3.347266931E0
4.615153083E0,1.844871821E0,1.344135422E0,-1.893515539E-1,2.290437967E0
4.625115083E0,5.485319781E-1,1.257040122E0,-2.712523341E-3,1.371511778E0
4.635078083E0,7.741212856E-2,9.314887161E-1,-6.322594285E-3,9.347212638E-1
4.645040083E0,1.749198582E-1,9.626364684E-1,1.550289828E-1,9.906058311E-1
4.655003083E0,1.151207766E-1,8.527982765E-1,3.765431464E-2,8.613568024E-1
4.664965083E0,2.228755781E-2,8.616380241E-1,-1.029180121E-1,8.680489255E-1
4.674928083E0,9.717372576E-2,7.880763967E-1,-6.789377511E-2,7.969420962E-1
4.684890083E0,3.288714824E-2,6.635917336E-1,-9.274151802E-2,6.708476299E-1
4.694853083E0,6.631199364E-2,6.190968344E-1,1.746042913E-1,6.466566550E-1
4.704815083E0,-3.708107737E-3,6.754049364E-2,7.610618949E-2,1.018215126E-1
4.714778083E0,6.072932338E-2,-7.633960303E-3,8.314097464E-2,1.032412211E-1
4.724740083E0,1.179919240E-2,5.865641691E-2,-1.675905561E-1,1.779505288E-1
4.734703083E0,5.749314990E-2,1.545254644E-3,3.673864067E-2,6.824644910E-2
4.744665083E0,1.535835145E-3,2.076940136E-2,-2.612886786E-2,3.341323927E-2
4.754628083E0,2.063372312E-2,1.979178345E-2,1.397285736E-1,1.426237690E-1
4.764590083E0,1.073856229E-2,2.795106126E-2,3.958564997E-2,4.963468776E-2
4.774553083E0,1.394258066E-2,2.121163359E-2,-2.073948920E-2,3.277888599E-2
4.784515083E0,4.924060443E-2,1.718635552E-2,-9.573236883E-2,1.090169454E-1
4.794477083E0,2.931570546E-2,3.416021956E-2,-3.241053164E-2,5.546867358E-2
4.804440083E0,1.813976230E-2,1.877904570E-2,1.848714173E-2,3.199184182E-2
4.814402083E0,2.802223284E-3,2.889419887E-2,1.243188214E-1,1.276632153E-1
4.824365083E0,3.317528349E-2,3.578145146E-2,1.174325556E-1,1.271664925E-1
4.834327083E0,3.161536056E-2,1.753914362E-2,-8.808947325E-2,9.522031233E-2
4.844290083E0,4.866579115E-2,-2.783244135E-1,-2.353855133E-1,3.677487978E-1
4.854252083E0,5.451432243E-2,-9.240531774E-1,2.776070881E-1,9.663911120E-1
4.864215083E0,-1.714858981E-1,-1.244988864E0,-9.168375671E-2,1.260083567E0
4.874177083E0,1.015562139E-1,-1.150473082E0,3.813162285E-1,1.216266436E0
4.884140083E0,1.460888458E-2,-8.204641242E-1,-1.075940305E-1,8.276178308E-1
4.894102083E0,1.950101695E-2,-3.015916541E-1,3.324259043E-2,3.040442160E-1
4.904065083E0,-7.884393626E-1,-2.353613935E-1,-2.080819398E-1,8.487223973E-1
4.914027083E0,-2.483530881E0,-2.474271779E-1,-1.636518717E-1,2.501185275E0
4.923990083E0,-4.204778969E0,-2.089304804E-1,2.090788901E-2,4.210018440E0
4.933952083E0,-5.106929500E0,3.233296467E-1,5.082300442E-1,5.142331062E0
4.943915083E0,-3.478955319E0,7.572248789E-1,1.798679549E-1,3.564950506E0
4.953877083E0,-1.821177734E0,2.936513728E-1,-2.099939793E-1,1.856614375E0
4.963840083E0,-7.897450458E-1,-1.038937114E-1,-4.962678105E-1,9.384950082E-1
4.973802083E0,2.729708673E-1,9.170575686E-2,3.823494315E-2,2.904908796E-1
4.983764083E0,-3.326296432E-1,-3.089277718E-1,3.446068239E-1,5.699409714E-1
4.993727083E0,-5.118954810E-1,-1.850307539E0,2.784870940E-1,1.939904646E0
5.003689083E0,-3.123335191E-1,-3.195098727E0,3.475421262E-1,3.229085572E0
5.013652083E0,2.941340239E-1,-4.043722091E0,-8.990795732E-2,4.055402152E0
5.023614083E0,5.653717765E-1,-4.237097114E0,-9.469676846E-1,4.378285623E0
5.033577083E0,-3.437332316E-2,-3.348282328E0,8.050925982E-1,3.443885911E0
5.043539083E0,-5.377235827E-1,-2.661636193E0,5.978468102E-1,2.780445051E0
5.053502083E0,-4.302730648E-1,-2.152557279E0,1.300637108E-1,2.198989386E0
5.063464083E0,2.841486423E-3,-1.795065677E0,-7.793543243E-1,1.956952228E0
5.073427083E0,1.443234253E-1,-1.268983937E0,-7.736918807E-2,1.279505950E0
5.083389083E0,1.112915027E0,-9.148001779E-1,6.031040418E-1,1.561785423E0
5.093352083E0,1.646162676E0,-1.134503386E0,2.042116678E-1,2.009639742E0
5.103314083E0,1.897601427E0,-1.267412790E0,-2.376676816E-1,2.294278162E0
5.113277083E0,2.874467278E-1,-2.216592184E0,-1.499956995E-1,2.240179734E0
5.123239083E0,-9.620982322E-1,-2.667618479E0,1.326049107E-1,2.838909196E0
5.133202083E0,-1.649318564E0,-2.673013413E0,3.220161062E-1,3.157363901E0
5.143164083E0,-1.589978973E0,-2.624255528E0,4.365063429E-2,3.068656968E0
5.153127083E0,-1.424606997E0,-2.439320814E0,-2.115832525E-1,2.832765187E0
5.163089083E0,-1.559056704E0,-2.296742454E0,1.260998833E-1,2.778773990E0
5.173052083E0,-4.630476587E-1,-2.384316788E0,2.735994065E-1,2.444225095E0
5.183014083E0,6.676832496E-1,-2.246344133E0,4.569125408E-1,2.387599622E0
5.192976083E0,2.391808240E0,-2.495660345E0,8.459342301E-2,3.457777214E0
5.202939083E0,2.949948071E0,-2.752475319E0,-8.043207657E-1,4.114030372E0
5.212901083E0,3.067840802E0,-2.177670924E0,9.261410719E-1,3.874485144E0
5.222864083E0,4.430044414E0,-1.966086210E0,-6.687752903E-2,4.847191052E0
5.232826083E0,4.888245388E0,-1.742960553E0,-5.982888597E-1,5.224060109E0
5.242789083E0,3.976798077E0,-1.130293610E0,6.833839738E-1,4.190405737E0
5.252751083E0,3.417185625E0,-1.255567647E0,-4.097991854E-1,3.663542423E0
5.262714083E0,2.486932791E0,-9.263617312E-1,2.273298043E-1,2.663580223E0
5.272676083E0,2.360204040E0,-7.188765728E-1,3.533507502E-1,2.492429214E0
5.282639083E0,2.346746965E0,-7.725376403E-1,-4.534790558E-1,2.511907438E0
5.292601083E0,2.478347617E0,-6.188733977E-1,2.754564822E-1,2.569258155E0
5.302564083E0,2.043770270E0,-4.376070812E-1,-1.469335127E-1,2.095253286E0
5.312526083E0,7.413314158E-1,3.431641696E-1,1.424837816E-1,8.292379293E-1
5.322489083E0,5.827571749E-2,3.321773611E-1,-3.046399355E-4,3.372505764E-1
5.332451083E0,1.798073083E-1,5.142864440E-1,-1.242661965E-1,5.588052453E-1
5.342414083E0,1.203202030E-1,8.624660629E-1,2.187414140E-1,8.978710749E-1
5.352376083E0,1.560742456E-1,4.857225763E-1,-1.999274129E-1,5.479567152E-1
5.362339083E0,1.806367906E-1,7.191218635E-1,7.550743461E-2,7.452967714E-1
5.372301083E0,1.225864102E-1,8.578533407E-1,9.049209416E-2,8.712798638E-1
5.382264083E0,6.587284947E-2,7.233166561E-1,-2.820755303E-2,7.268575399E-1
5.392226083E0,7.845161732E-2,6.404606601E-1,-4.767351866E-2,6.470063970E-1
5.402188083E0,5.512792376E-2,3.137584856E-1,-3.586857498E-2,3.205776504E-1
5.412151083E0,7.652984310E-2,-6.940211920E-2,6.247691453E-2,1.207345679E-1
5.422113083E0,6.883879936E-2,-9.421307947E-3,1.067923772E-1,1.274054676E-1
5.432076083E0,2.415323988E-2,-6.254035681E-3,-4.695021808E-2,5.316779981E-2
5.442038083E0,7.307259005E-2,-3.047155838E-2,5.799210012E-2,9.813869249E-2
5.452001083E0,2.906299154E-2,-1.698685583E-2,-7.449235797E-2,8.174547170E-2
5.461963083E0,5.049591940E-2,-3.466605853E-2,5.873294234E-2,8.485948389E-2
5.471926083E0,4.505469238E-2,-1.197021889E-2,6.082624555E-2,7.663578533E-2
5.481888083E0,4.525861859E-2,-2.386793230E-2,5.184199870E-2,7.283964290E-2
5.491851083E0,5.571284632E-2,-2.713524677E-2,4.151698530E-2,7.459157413E-2
5.501813083E0,4.619964116E-2,-1.168759737E-2,-3.677255452E-2,6.019325162E-2
5.511776083E0,5.829654819E-2,-3.185917575E-2,7.988466024E-3,6.691270582E-2
5.521738083E0,5.442570057E-2,-2.231235366E-2,1.247503459E-2,6.013006317E-2
5.531701083E0,6.162145774E-2,-1.247032028E-2,4.375471473E-2,7.659757178E-2
5.541663083E0,-3.318119009E-2,1.869444380E-2,-2.375092220E-1,2.405433519E-1
5.551626083E0,-4.419307318E-2,-6.185769439E-3,-8.664638042E-2,9.746223218E-2
5.561588083E0,3.429740255E-1,-1.300021506E-1,5.913885605E-1,6.958966668E-1
5.571551083E0,1.249241270E-1,-9.076799138E-2,3.306074202E-1,3.648919457E-1
5.581513083E0,-1.123244864E0,-1.007858980E0,-8.248988718E-1,1.719859558E0
5.591476083E0,-3.380419795E0,-2.178653256E0,4.033333343E-1,4.041836931E0
5.601438083E0,-4.330518956E0,-2.129093572E0,-9.978858232E-3,4.825612235E0
5.611400083E0,-4.294208624E0,-2.271026984E0,1.710445064E-1,4.860766142E0
5.621363083E0,-3.761272339E0,-2.511068343E0,3.129663706E-2,4.522567115E0
5.631325083E0,-2.958997514E0,-2.041045029E0,-1.646283567E-1,3.598420987E0
5.641288083E0,-2.264738889E0,-1.450614097E0,3.462329346E-1,2.711678583E0
5.651250083E0,-1.743954434E0,-1.329737531E0,-1.028098387E-1,2.195483735E0
5.661213083E0,-1.876886496E0,-1.347957747E0,2.739198339E-1,2.326956184E0
5.671175083E0,-1.917748447E0,-1.727890086E0,-7.448709548E-2,2.582423587E0
5.681138083E0,-1.723017017E0,-1.911008362E0,-5.884170055E-2,2.573752697E0
5.691100083E0,-6.939296465E-1,-2.087868801E0,2.542761129E-1,2.214811691E0
5.701063083E0,5.076678710E-1,-1.362567308E0,-1.894024247E-1,1.466352486E0
5.711025083E0,1.441254897E0,-1.042694572E0,2.874485368E-1,1.801958465E0
5.720988083E0,2.094384646E0,-1.670620263E0,2.085614115E-1,2.687176394E0
5.730950083E0,2.668841717E0,-2.489376343E0,-3.220511895E-1,3.663799620E0
5.740913083E0,2.994257394E0,-3.159430127E0,2.401106483E-1,4.359498731E0
5.750875083E0,2.785657976E0,-3.553363477E0,9.944067299E-2,4.516211997E0
5.760838083E0,3.007309549E0,-3.530700839E0,1.124828875E-2,4.637875123E0
5.770800083E0,2.862898817E0,-3.202161286E0,9.295084834E-2,4.296355013E0
5.780763083E0,1.804860640E0,-2.814464284E0,2.678252810E-1,3.354170764E0
5.790725083E0,1.398223044E0,-2.802611393E0,-2.275251013E-1,3.140290746E0
5.800688083E0,-1.637213220E0,-2.759945722E0,1.579087365E-1,3.212896308E0
5.810650083E0,-1.680399878E0,-2.388993683E0,1.079150426E-1,2.922786380E0
5.820612083E0,3.950472816E-1,-2.236468917E0,3.678214395E-1,2.300684285E0
5.830575083E0,1.187528788E0,-2.075603097E0,-1.302233398E-1,2.394850926E0
5.840537083E0,1.216791471E0,-1.810631842E0,-9.824199378E-2,2.183717161E0
5.850500083E0,1.534711529E0,-1.780598496E0,1.852596724E-1,2.358005858E0
5.860462083E0,1.854175034E0,-1.889915262E0,1.125197250E-1,2.649982159E0
5.870425083E0,1.453742211E0,-1.851080395E0,4.422015309E-2,2.354107148E0
5.880387083E0,1.513755986E0,-1.881299390E0,1.735055995E-1,2.420918993E0
5.890350083E0,2.239389309E0,-2.291479522E0,9.365660727E-2,3.205388344E0
5.900312083E0,2.660247187E0,-2.118199917E0,-3.959453773E-1,3.423515550E0
5.910275083E0,2.500229360E0,-1.645688174E0,2.598970413E-1,3.004493783E0
5.920237083E0,3.073970439E0,-1.632026301E0,1.391485298E-1,3.483125955E0
5.930200083E0,3.097948116E0,-1.596923857E0,-1.522726053E-1,3.488643760E0
5.940162083E0,2.313737971E0,-1.219600546E0,2.300750721E-1,2.625593920E0
5.950125083E0,1.412009902E0,-1.079582243E0,1.681460416E-1,1.785369114E0
5.960087083E0,6.237502679E-1,-8.807432896E-1,-7.878596842E-2,1.082118463E0
5.970050083E0,1.071133382E0,-3.944080713E-1,-8.500799060E-2,1.144600720E0
5.980012083E0,1.611097654E0,7.136499295E-2,1.024806404E-1,1.615930350E0
5.989975083E0,1.967298045E0,4.895326586E-1,2.271093643E-1,2.039971197E0
5.999937083E0,3.400414641E0,9.916614622E-1,-4.673620999E-2,3.542371587E0
6.009900083E0,3.321816661E0,1.360878632E0,-2.443832088E-1,3.598080006E0
6.019862083E0,2.244655165E0,1.533640320E0,1.595927346E-1,2.723233240E0
6.029825083E0,1.911191526E0,1.565982877E0,-1.826290101E-1,2.477561054E0
6.039787083E0,9.664131119E-1,1.543920163E0,8.828009248E-2,1.823578117E0
6.049749083E0,1.063819575E-2,1.103502399E0,3.751164258E-2,1.104191033E0
6.059712083E0,1.198475835E-1,1.000848096E0,-1.190849787E-1,1.015008171E0
6.069674083E0,1.613609326E-1,9.938644738E-1,7.145706832E-2,1.009410747E0
6.079637083E0,7.728089511E-2,7.002535564E-1,-7.644708216E-2,7.086406257E-1
6.089599083E0,4.853936796E-2,8.482042654E-1,-2.032199800E-2,8.498350014E-1
6.099562083E0,9.474634554E-2,8.869321288E-1,5.870955348E-2,8.939084309E-1
6.109524083E0,4.336586575E-2,6.808574650E-1,-1.179500341E-2,6.823390712E-1
6.119487083E0,3.965220316E-2,3.069278048E-1,-2.975823462E-2,3.109059779E-1
6.129449083E0,6.544278676E-2,-3.996789342E-2,5.437033474E-2,9.400172415E-2
6.139412083E0,3.180770198E-2,5.678459527E-2,-1.837604463E-2,6.763060832E-2
6.149374083E0,5.809551361E-2,3.240039038E-2,7.832462311E-2,1.027600145E-1
6.159337083E0,6.580793167E-2,4.242235355E-2,8.446186066E-2,1.151700736E-1
6.169299083E0,4.230176843E-2,3.741589442E-2,2.638088286E-2,6.233249352E-2
6.179262083E0,5.982026407E-2,2.365231622E-2,1.814800322E-2,6.683746013E-2
6.189224083E0,2.808003805E-2,3.614783434E-2,-3.753620088E-2,5.919561505E-2
6.199187083E0,2.246706733E-2,5.987950824E-3,3.476228178E-2,4.182153637E-2
6.209149083E0,-3.694800753E-4,8.916382603E-3,3.985052884E-2,4.083752004E-2
6.219111083E0,-8.543047020E-3,-1.405889913E-3,3.805309474E-2,3.902560952E-2
6.229074083E0,-7.184021627E-3,5.467091817E-3,-5.714776218E-2,5.785642559E-2
6.239037083E0,4.036314692E-3,1.701154204E-2,-4.846523166E-2,5.152245218E-2
6.248999083E0,7.808382746E-2,-2.082723398E-3,1.021309769E-1,1.285774408E-1
6.258961083E0,-8.674711699E-2,-1.753238278E-1,-2.134122616E-1,2.894966326E-1
6.268924083E0,-1.840411583E-2,-1.076647233E0,1.902929556E-1,1.093489545E0
6.278886083E0,-1.949784026E-1,-1.932116079E0,3.856367362E-1,1.979849695E0
6.288849083E0,-1.598338884E0,-1.923331369E0,-4.411385071E-1,2.539388494E0
6.298811083E0,-2.543785854E0,-6.820688619E-1,3.080167025E-1,2.651591728E0
6.308774083E0,-3.010082591E0,-1.498369111E-2,-1.132617366E-1,3.012249979E0
6.318736083E0,-3.365972494E0,-1.386135644E-1,8.411862910E-2,3.369875442E0
6.328699083E0,-3.297112175E0,-1.217146397E0,1.291065216E-1,3.516967804E0
6.338661083E0,-2.692536973E0,-1.554736927E0,1.104714453E-1,3.111135839E0
6.348624083E0,-2.070340749E0,-2.458503044E0,9.213983953E-2,3.215437417E0
6.358586083E0,-1.044741901E0,-2.727121500E0,2.200950444E-2,2.920472861E0
6.368549083E0,-2.943825488E-1,-2.563579263E0,-1.740201545E-1,2.586287443E0
6.378511083E0,-3.004614056E-1,-2.294136643E0,2.861937243E-1,2.331361585E0
6.388474083E0,7.491563060E-1,-2.246583284E0,6.621737838E-2,2.369125654E0
6.398436083E0,1.198597202E0,-2.144016105E0,3.635798693E-2,2.456575302E0
6.408399083E0,1.335061713E0,-1.793341041E0,1.731196833E-1,2.242416618E0
6.418361083E0,1.707674215E0,-1.644226955E0,-2.290050316E-1,2.381612229E0
6.428324000E0,2.518917061E0,-1.568993901E0,2.574523205E-1,2.978752544E0
6.438286000E0,3.214196903E0,-1.581122634E0,-8.087927163E-2,3.582952968E0
6.448248000E0,3.567050932E0,-1.412147604E0,9.319058418E-2,3.837537972E0
6.458211000E0,3.228767872E0,-1.368214110E0,1.038132209E-1,3.508237307E0
6.468173000E0,2.758706405E0,-1.185711400E0,-3.571713209E-2,3.002939937E0
6.478136000E0,2.129958375E0,-9.088436193E-1,9.570488691E-2,2.317731397E0
6.488098000E0,1.763768017E0,-1.024211669E0,1.033565533E-1,2.042197282E0
6.498061000E0,1.054072084E0,-1.171117992E0,-6.648284197E-4,1.575622338E0
6.508023000E0,-6.532498820E-2,-1.226591039E0,4.124801338E-2,1.229021696E0
6.517986000E0,-9.825612943E-1,-1.045610359E0,1.447139096E-1,1.442106042E0
6.527948000E0,-1.580059318E0,-8.302959980E-1,3.427696288E-2,1.785260150E0
6.537911000E0,-2.371153243E0,-1.102932660E0,-1.689915490E-1,2.620569843E0
6.547873000E0,-1.980980822E0,-7.409671343E-1,2.310486335E-1,2.127604470E0
6.557836000E0,-5.611355418E-1,-7.577044237E-1,1.362342775E-2,9.429605971E-1
6.567798000E0,4.850189955E0,9.184444404E0,-3.426228637E-1,1.039210046E1
6.577761000E0,1.285654057E0,3.328600893E0,1.397654110E-1,3.570997707E0
6.587723000E0,-2.078877245E0,-4.400040011E0,-2.336430430E-2,4.866480103E0
6.597686000E0,-9.706948087E-1,-1.229105926E0,-3.859220803E-2,1.566664976E0
6.607648000E0,-1.518509626E0,-2.286204310E0,2.155073190E-1,2.753006545E0
6.617611000E0,-8.138322122E-1,-2.026956456E0,-6.075374007E-2,2.185078113E0
6.627573000E0,-3.051346648E-1,-2.271318030E0,1.599920994E-1,2.297300639E0
6.637536000E0,3.595720415E-1,-2.173346762E0,1.574351120E-1,2.208509455E0
6.647498000E0,1.259215432E0,-1.915747676E0,-1.194352269E-1,2.295643143E0
6.657460000E0,1.613504515E0,-1.292114353E0,1.217939937E-1,2.070697973E0
6.667423000E0,2.199539803E0,-1.195044287E0,2.693788862E-1,2.517671777E0
6.677385000E0,3.489585849E0,-1.047585256E0,-2.345791823E-1,3.650982287E0
6.687348000E0,4.514691339E0,-3.807489024E-1,2.293991339E-1,4.536521969E0
6.697310000E0,4.243337263E0,-2.920350013E-1,-7.894150436E-2,4.254107113E0
6.707273000E0,3.310386231E0,-2.869621946E-1,2.915304780E-2,3.322928558E0
6.717235000E0,2.245776076E0,-4.146395836E-2,3.536308318E-1,2.273825897E0
6.727198000E0,1.011364459E0,-8.499362838E-2,-2.936208576E-1,1.056548718E0
6.737160000E0,1.668164944E-3,-2.659721887E-1,7.822872877E-2,2.772430738E-1
6.747123000E0,-5.294843442E-1,-2.477616934E-2,-1.583086860E-1,5.531990324E-1
6.757085000E0,-2.250799419E-1,7.040550506E-1,1.403384382E-1,7.523625268E-1
6.767048000E0,1.727273716E-1,7.486652130E-1,-1.714812934E-2,7.685235223E-1
6.777010000E0,3.867844075E-2,3.964977200E-1,3.971311927E-2,4.003543375E-1
6.786973000E0,7.556575601E-2,-7.383458275E-2,2.863089144E-2,1.094598421E-1
6.796935000E0,7.089641627E-2,-3.265507316E-2,1.397835374E-2,7.929722578E-2
6.806898000E0,4.431504244E-3,-7.634270936E-4,-6.297334313E-2,6.313369145E-2
6.816860000E0,7.267173601E-2,-2.432551347E-2,1.202544218E-1,1.425974677E-1
6.826823000E0,2.213028142E-2,-1.871063327E-2,3.821623206E-2,4.796162577E-2
6.836785000E0,5.649125691E-2,-2.032013420E-2,4.031655192E-2,7.231593407E-2
6.846747000E0,2.318052814E-2,-3.075242573E-2,-6.838903427E-3,3.911290290E-2
6.856710000E0,4.141951039E-2,-1.405029276E-2,2.834028482E-2,5.211677572E-2
6.866672000E0,4.681951454E-2,-2.682011839E-2,3.761689246E-2,6.577549916E-2
6.876635000E0,5.660567961E-2,-2.618628021E-2,4.510015905E-2,7.696719159E-2
6.886597000E0,6.398855682E-2,-1.520690857E-2,1.755568027E-2,6.807339702E-2
6.896560000E0,6.302831610E-2,-1.812644161E-2,3.800690174E-5,6.558306153E-2
6.906522000E0,6.152104095E-2,-3.400685806E-3,-4.902890325E-3,6.180971992E-2
6.916485000E0,6.891155608E-2,-2.003389472E-2,-1.987702489E-2,7.446647311E-2
6.926447000E0,6.817601290E-2,-1.849903716E-2,7.765102386E-4,7.064549581E-2
6.936410000E0,6.356493518E-2,-1.060487576E-2,-8.741587400E-4,6.444942612E-2
6.946372000E0,6.427825894E-2,-3.038090827E-2,2.112599015E-2,7.416873748E-2
6.956335000E0,5.439685735E-2,-1.700012170E-2,-1.076355457E-2,5.799893391E-2
6.966297000E0,5.471037774E-2,-3.727859449E-2,1.243468881E-2,6.736126873E-2
6.976260000E0,1.622934904E-2,-1.702491755E-2,-1.727033615E-2,2.918054315E-2
6.986222000E0,-1.869501755E-1,6.237109819E-2,-4.096863341E-1,4.546244762E-1
6.996185000E0,3.228891321E-1,-1.165598221E-1,6.341667902E-1,7.211179526E-1
7.006147000E0,2.733469529E-1,-8.840209829E-2,5.254863471E-1,5.988901307E-1
7.016110000E0,-3.920933413E-1,9.266022345E-2,-8.798615295E-1,9.677186659E-1
7.026072000E0,1.546476712E-1,-7.663004885E-1,6.250357783E-1,1.000900627E0
7.036034000E0,-6.579304594E-1,-1.422172070E0,-3.923037314E-1,1.615347673E0
7.045997000E0,-1.678600836E0,-1.740855263E0,3.231323397E-1,2.439813993E0
7.055959000E0,-3.031887443E0,-2.293012661E0,-3.258191353E-1,3.815285919E0
7.065922000E0,-3.100490777E0,-2.433231816E0,3.903770739E-1,3.960562384E0
7.075884000E0,-3.633224748E0,-2.791727678E0,-5.852653563E-2,4.582301917E0
7.085847000E0,-3.754938343E0,-2.966589831E0,1.870506746E-1,4.789071428E0
7.095809000E0,-3.669091862E0,-2.785721418E0,3.306951284E-2,4.606904872E0
7.105772000E0,-3.177649758E0,-2.211282474E0,-2.058629215E-2,3.871388893E0
7.115734000E0,-2.419890955E0,-1.893692856E0,1.956782413E-1,3.078999000E0
7.125697000E0,-1.639789942E0,-1.819072444E0,-4.851376355E-2,2.449548774E0
7.135659000E0,-6.005959883E-1,-2.112922951E0,1.117467231E-1,2.199464996E0
7.145622000E0,9.359848595E-1,-1.315114522E0,9.435827315E-2,1.616940737E0
7.155584000E0,1.642905630E0,-8.892520116E-1,-8.462616742E-2,1.870045357E0
7.165547000E0,2.611186124E0,-1.216271069E0,3.189422250E-2,2.880733505E0
7.175509000E0,3.238235391E0,-1.761157819E0,3.451886219E-1,3.702296652E0
7.185472000E0,3.023478562E0,-2.701144367E0,-2.776614672E-1,4.063828170E0
7.195434000E0,2.331089437E0,-3.322875592E0,3.379252106E-1,4.073042304E0
7.205397000E0,2.151957647E0,-3.486051792E0,-3.644686460E-2,4.096926554E0
7.215359000E0,1.529807762E0,-3.184313245E0,1.842422569E-1,3.537528493E0
7.225322000E0,1.070312798E0,-2.854654536E0,-9.690064251E-2,3.050247816E0
7.235284000E0,2.589472160E-1,-2.347040642E0,7.356732845E-2,2.362427901E0
7.245246000E0,-1.790819429E-1,-2.129393680E0,2.422776264E-1,2.150601366E0
7.255209000E0,7.250900983E-2,-2.074347115E0,-7.074546218E-2,2.076819306E0
7.265171000E0,-1.683892858E-1,-2.045640064E0,6.184833884E-2,2.053490550E0
7.275134000E0,2.838082430E-1,-1.939564555E0,1.119940603E-1,1.963415507E0
7.285096000E0,9.916724988E-1,-2.059282787E0,1.854000056E-1,2.293127363E0
7.295059000E0,1.994393312E0,-2.495731389E0,5.056905985E-2,3.195127083E0
7.305021000E0,1.523393074E0,-3.008082258E0,-9.511022508E-2,3.373178217E0
7.314984000E0,1.435002031E0,-3.294794046E0,1.591612101E-1,3.597253247E0
7.324946000E0,1.664426015E0,-3.179902398E0,9.398463607E-2,3.590393618E0
7.334909000E0,1.352189085E0,-3.040172947E0,-9.875479460E-2,3.328786473E0
7.344871000E0,1.556321084E0,-2.908493651E0,-1.831470734E-1,3.303787748E0
7.354834000E0,1.546748169E0,-2.493636332E0,4.995065832E-1,2.976601901E0
7.364796000E0,2.115098115E0,-2.256972325E0,4.400105792E-1,3.124287666E0
7.374759000E0,3.580251898E0,-2.062642159E0,-4.079298306E-1,4.151999889E0
7.384721000E0,3.482604274E0,-1.310170847E0,-8.142657101E-2,3.721788611E0
7.394684000E0,3.048802561E0,-9.119430821E-1,3.073536283E-1,3.197077336E0
7.404646000E0,2.858785301E0,-6.547747171E-1,7.612840891E-2,2.933799390E0
7.414609000E0,2.707990872E0,-4.381589853E-1,1.685641176E-1,2.748383474E0
7.424571458E0,3.586459010E0,-1.980373552E-1,-1.064900762E-1,3.593500683E0
7.434533458E0,3.768462953E0,2.574665182E-1,-1.824559325E-1,3.781652047E0
7.444496458E0,2.930097651E0,7.931017862E-1,2.242003745E-1,3.043804937E0
7.454458458E0,2.839391256E0,9.978720823E-1,-2.297072822E-1,3.018386462E0
7.464421458E0,2.228836985E0,1.502650661E0,1.137920791E-1,2.690468723E0
7.474383458E0,1.571559221E0,1.520848951E0,2.559677124E-2,2.187106561E0
7.484346458E0,8.309443811E-1,1.620284507E0,-1.781588137E-1,1.829625921E0
7.494308458E0,1.546484204E-1,1.309527653E0,7.225053549E-2,1.320605523E0
7.504271458E0,1.208282347E-1,1.002206185E0,-1.732600164E-1,1.024224454E0
7.514233458E0,2.591892359E-1,1.087441851E0,2.289500678E-1,1.141107783E0
7.524196458E0,3.714472979E-2,7.313337003E-1,-1.668456209E-1,7.510433898E-1
7.534158458E0,1.331052862E-1,9.687995799E-1,1.205467826E-1,9.853025779E-1
7.544121458E0,1.390497118E-1,8.126723439E-1,3.072770298E-2,8.250547573E-1
7.554083458E0,4.471584166E-2,6.265233830E-1,-9.816013277E-2,6.357408809E-1
7.564046458E0,1.089849095E-1,5.646053892E-1,1.031706119E-1,5.842098349E-1
7.574008458E0,-2.037014160E-2,9.103796829E-2,-7.900523901E-2,1.222484443E-1
7.583971458E0,7.732266616E-2,-3.087044813E-2,1.823530215E-1,2.004604792E-1
7.593933458E0,3.268155009E-3,5.432527464E-2,-7.795683324E-2,9.507462412E-2
7.603896458E0,6.605590386E-2,1.459313365E-2,1.664585352E-2,6.966653733E-2
7.613858458E0,3.151359617E-2,2.341954222E-2,-1.508873999E-2,4.206247467E-2
7.623821458E0,1.014883862E-2,2.250600614E-2,-8.652125001E-3,2.616062890E-2
7.633783458E0,3.519538230E-2,1.577450875E-3,8.669900537E-2,9.358376364E-2
7.643746458E0,-1.320014872E-2,3.586894043E-2,-5.809208751E-3,3.865969115E-2
7.653708458E0,4.442258096E-2,1.594943186E-2,3.520667017E-2,5.888344164E-2
7.663670458E0,2.911175184E-2,2.908887461E-2,-4.742150366E-2,6.278897778E-2
7.673633458E0,3.631475864E-2,1.310964022E-2,8.563247323E-3,3.954685280E-2
7.683595458E0,3.810587043E-2,9.995303527E-3,4.434002101E-2,5.931273824E-2
7.693558458E0,3.817812466E-2,8.671512175E-3,4.688706815E-2,6.108323408E-2
7.703520458E0,4.431651338E-2,-3.734397367E-3,-1.433269501E-2,4.672606583E-2
7.713483458E0,6.293322118E-2,-3.861336033E-1,9.554058015E-2,4.027254057E-1
7.723445458E0,-5.627512463E-2,-1.026212221E0,-3.125219822E-2,1.028229115E0
7.733408458E0,-2.183387601E-1,-1.387067726E0,1.798077285E-1,1.415612769E0
7.743370458E0,-2.174942942E-1,-9.642609711E-1,-3.150912488E-1,1.037489992E0
7.753333458E0,-2.355082610E0,2.152294118E-1,2.123854905E-1,2.374414748E0
7.763295458E0,-4.437140010E0,7.513814639E-1,2.063622737E-1,4.505038397E0
7.773258458E0,-4.168368649E0,1.172349343E0,-3.792533308E-1,4.346669215E0
7.783220458E0,-3.498517179E0,1.387253229E0,-2.238729304E-1,3.770174142E0
7.793183458E0,-3.127828850E0,6.452003400E-1,5.466854274E-2,3.194148625E0
7.803145458E0,-2.857758238E0,-7.187297346E-1,3.028471792E-1,2.962274631E0
7.813108458E0,-2.467173003E0,-1.755865797E0,3.796152735E-1,3.051903517E0
7.823070458E0,-1.710784641E0,-2.274431233E0,5.219078511E-1,2.893477031E0
7.833033458E0,-8.631546456E-1,-2.600880114E0,4.451783484E-1,2.776291964E0
7.842995458E0,2.801832069E-1,-2.984670299E0,-1.512698663E0,3.357829160E0
7.852957458E0,6.479570098E-1,-2.676181142E0,-1.818460679E-1,2.759503901E0
7.862920458E0,4.733820642E-1,-2.441700339E0,1.061107088E0,2.704059795E0
7.872882458E0,6.387186284E-1,-2.595769647E0,4.848505372E-1,2.716810923E0
7.882845458E0,1.083390827E0,-2.360623578E0,1.642412710E-1,2.602547705E0
7.892807458E0,1.976799332E0,-2.271984320E0,-1.517485778E0,3.372300615E0
7.902770458E0,1.065656880E0,-1.482613861E0,7.423186451E-1,1.970990974E0
7.912732458E0,9.653964273E-1,-1.304567022E0,7.792958522E-1,1.800329803E0
7.922695458E0,1.941335823E0,-1.680341259E0,-4.318519592E-2,2.567916760E0
7.932657458E0,2.151735891E0,-2.130878873E0,-8.491917139E-1,3.145113461E0
7.942620458E0,1.340527690E0,-1.796684186E0,4.890114158E-1,2.294388964E0
7.952582458E0,8.957729727E-1,-2.055281684E0,6.313127643E-1,2.329194673E0
7.962545458E0,9.823316449E-1,-2.535653839E0,-9.349569190E-1,2.875527828E0
7.972507458E0,-2.272925100E-1,-1.724116293E0,3.990560961E-1,1.784232228E0
7.982470458E0,-8.307194095E-1,-1.360145391E0,5.431478620E-1,1.683775467E0
7.992432458E0,-2.871661528E-1,-1.445831951E0,-5.632160908E-1,1.578007223E0
8.002395458E0,-7.031762141E-1,-1.342084512E0,1.093376702E-1,1.519079442E0
8.012357458E0,-5.067579346E-1,-1.261108030E0,3.495155615E-1,1.403338233E0
8.022320458E0,3.132747016E-1,-1.488126031E0,-2.001092613E-1,1.533852614E0
8.032282458E0,-1.167418898E-1,-1.626638969E0,1.825518268E-1,1.641008280E0
8.042244458E0,3.129516795E-1,-1.555884297E0,4.849739134E-2,1.587786729E0
8.052207458E0,7.323687306E-1,-1.466880758E0,1.263875663E-2,1.639592283E0
8.062169458E0,5.272249436E-1,-1.607283223E0,-2.923783243E-2,1.691797964E0
8.072132458E0,8.124964888E-1,-1.147691781E0,5.298512936E-2,1.407179588E0
8.082094458E0,1.100908574E0,-7.905857293E-1,1.284902251E-1,1.361446004E0
8.092057458E0,1.253037264E0,-7.889873198E-1,2.506403142E-1,1.501806893E0
8.102019458E0,1.783721786E0,-1.161042874E0,3.851970255E-2,2.128653972E0
8.111982458E0,1.670852398E0,-1.561243270E0,-5.023331273E-1,2.341274622E0
8.121944458E0,1.799586744E0,-9.650175277E-1,5.742339993E-1,2.121206252E0
8.131907458E0,2.479525538E0,-9.672519681E-1,-5.989419937E-2,2.662181545E0
8.141869458E0,2.999195075E0,-7.475517569E-1,-1.793539846E-1,3.096154483E0
8.151832458E0,3.100875817E0,-2.707493091E-1,2.844600248E-1,3.125644497E0
8.161794458E0,2.386540630E0,-7.352866374E-2,-1.571047443E-1,2.392836088E0
8.171757458E0,1.867126616E0,7.726876214E-3,-2.520828223E-1,1.884082603E0
8.181719458E0,1.615939734E0,2.644233161E-1,5.377883041E-1,1.723484022E0
8.191682458E0,1.382963273E0,1.946818940E-1,-1.652873379E-1,1.406345747E0
8.201644458E0,1.155057518E0,4.383302356E-1,-1.680232501E-1,1.246805149E0
8.211607458E0,8.982118464E-1,6.923636160E-1,3.871219289E-1,1.198338552E0
8.221569458E0,3.006157720E-1,4.621326426E-1,-3.680804712E-1,6.628873622E-1
8.231532458E0,8.122843263E-2,8.450302505E-1,1.579496670E-1,8.634942269E-1
8.241494458E0,1.885871949E-1,5.543686322E-1,1.006492925E-1,5.941548540E-1
8.251456458E0,-4.681624375E-2,4.129082961E-1,-1.486227733E-1,4.413317918E-1
8.261419458E0,8.947778497E-2,-1.052224546E-1,1.614012784E-1,2.124344878E-1
8.271381458E0,1.412101210E-2,-2.388348224E-2,-6.643314064E-2,7.199434617E-2
8.281344458E0,3.662313532E-2,-2.465153228E-2,1.035775781E-2,4.534573002E-2
8.291306458E0,7.044666032E-2,-1.677938931E-2,8.924663723E-2,1.149314670E-1
8.301269458E0,3.252569895E-2,5.246432517E-3,-1.509224832E-2,3.623840650E-2
8.311231458E0,6.359317083E-2,-1.620272594E-2,7.832053006E-2,1.021798666E-1
8.321194458E0,2.890703991E-2,-1.098244144E-2,-5.880018532E-2,6.643562877E-2
8.331156458E0,6.866366155E-2,-2.347764893E-2,4.000197172E-2,8.286166881E-2
8.341119458E0,4.192690709E-2,-4.296442699E-3,-1.329306006E-2,4.419310358E-2
8.351081458E0,5.626159837E-2,-1.905596618E-2,6.529761136E-2,8.827386560E-2
8.361044458E0,5.177078144E-2,-2.211966963E-2,1.305273950E-2,5.779158766E-2
8.371006458E0,5.050931318E-2,-2.494299771E-2,1.739312768E-2,5.895646482E-2
8.380969458E0,3.358501343E-2,-2.108250149E-2,-2.407181740E-2,4.638833246E-2
8.390931458E0,3.433183534E-2,-1.953205744E-2,1.140148580E-2,4.111167795E-2
8.400894458E0,3.639511675E-2,-2.154264081E-2,3.220587909E-2,5.315927524E-2
8.410856458E0,5.522792028E-2,-1.062535929E-2,5.300676405E-2,7.728349419E-2
8.420819458E0,4.832333618E-2,-2.072985956E-2,1.618333876E-2,5.501610992E-2
8.430781083E0,4.995898055E-2,-2.240552539E-2,-1.630320668E-2,5.712881807E-2
8.440743083E0,3.980335825E-2,-1.540253447E-2,-2.004951775E-2,4.715430583E-2
8.450706083E0,4.370323182E-2,-2.180262264E-2,1.317611575E-2,5.058593532E-2
8.460668083E0,4.993774328E-2,-3.883283922E-2,3.367820799E-2,7.166581682E-2
8.470631083E0,4.521194137E-2,-1.761205109E-2,1.661077023E-2,5.128568683E-2
8.480593083E0,2.761015945E-2,-5.752362851E-3,-1.230195701E-2,3.076928224E-2
8.490556083E0,-2.145881732E-1,-7.813049555E-3,-2.984056342E-1,3.676343976E-1
8.500518083E0,-1.215281062E0,-8.623809859E-1,8.793984300E-1,1.730303622E0
8.510481083E0,-3.282406427E0,-2.791365443E0,-7.643006676E-1,4.376079124E0
8.520443083E0,-3.167013381E0,-3.168754097E0,7.946746141E-1,4.549998244E0
8.530406083E0,-3.146234715E0,-3.756632574E0,-2.499871802E-1,4.906482932E0
8.540368083E0,-2.613128569E0,-3.529062449E0,-3.169190884E-2,4.391324067E0
8.550331083E0,-2.572338977E0,-2.818949390E0,1.629098600E-1,3.819678403E0
8.560293083E0,-2.793843201E0,-2.209005129E0,-5.550761819E-2,3.562070267E0
8.570256083E0,-2.926058687E0,-1.503915706E0,4.906574070E-1,3.326308251E0
8.580218083E0,-2.994876614E0,-9.402109346E-1,-3.026904738E-1,3.153554195E0
8.590181083E0,-1.860219593E0,-1.029348594E-1,1.509552276E-1,1.869170939E0
8.600143083E0,-3.086407466E-1,2.973810923E-1,-4.535334349E-2,4.309890374E-1
8.610106083E0,2.958386699E-1,-2.937236772E-1,-8.406892776E-2,4.252783816E-1
8.620068083E0,1.183174732E0,-8.914929570E-1,3.446483392E-1,1.521001189E0
8.630031083E0,1.538872700E0,-1.588248197E0,-1.329469728E-1,2.215476568E0
8.639993083E0,2.057911761E0,-2.382744910E0,3.206203759E-2,3.148571438E0
8.649955083E0,2.806065635E0,-2.773575582E0,2.676299840E-1,3.954535581E0
8.659918083E0,2.574583431E0,-3.320715922E0,-2.744074917E-1,4.210811507E0
8.669880083E0,1.987224040E0,-3.645017413E0,3.643838614E-1,4.167491683E0
8.679843083E0,2.361352579E0,-3.484238863E0,2.895307302E-2,4.209126363E0
8.689805083E0,2.040931155E0,-3.094002707E0,8.600494087E-2,3.707512587E0
8.699768083E0,1.792470975E0,-2.745380892E0,1.475287592E-1,3.282047101E0
8.709730083E0,1.438702880E0,-2.138908562E0,-6.384633243E-2,2.578540705E0
8.719693083E0,-2.665361162E0,-2.155189696E0,-7.016951144E-2,3.428398534E0
8.729655083E0,-1.557076837E0,-2.056411658E0,2.952843904E-3,2.579404176E0
8.739618083E0,2.036581119E0,-1.874771558E0,6.107603860E-1,2.834688572E0
8.749580083E0,2.254806224E0,-1.795239924E0,3.558141822E-1,2.904073212E0
8.759543083E0,2.055895349E0,-1.903195020E0,-9.349130648E-1,2.953458889E0
8.769505083E0,1.300413160E0,-1.629741502E0,2.182549256E-1,2.096369948E0
8.779468083E0,1.201934865E0,-1.402673945E0,4.872993511E-1,1.910393225E0
8.789430083E0,9.006132978E-1,-1.424515196E0,8.755620718E-3,1.685355902E0
8.799393083E0,1.850708073E-1,-1.483126224E0,-2.065675110E-1,1.508835556E0
8.809355083E0,4.057290482E-1,-1.424708300E0,1.429036117E-1,1.488230910E0
8.819318083E0,8.194839846E-1,-1.414068122E0,1.003715497E-1,1.637442244E0
8.829280083E0,1.258104900E0,-1.318536897E0,1.078255802E-1,1.825648883E0
8.839242083E0,1.763008025E0,-1.407420276E0,-2.411888748E-1,2.268744411E0
8.849205083E0,1.583569548E0,-1.357245465E0,4.309924185E-2,2.086064550E0
8.859167083E0,2.213550024E0,-1.888034505E0,3.402945024E-1,2.929211216E0
8.869130083E0,2.663866906E0,-1.895729880E0,4.014768434E-1,3.294110248E0
8.879092083E0,3.372335435E0,-1.982033906E0,-4.867239851E-1,3.941827612E0
8.889055083E0,2.689932916E0,-1.753579243E0,-1.275909233E-1,3.213574131E0
8.899017083E0,1.423943923E0,-1.066938078E0,6.053511268E-1,1.879474167E0
8.908980083E0,8.994279210E-1,-9.313493331E-1,9.171357751E-2,1.297995973E0
8.918942083E0,1.070197024E0,-7.203524101E-1,-3.761455357E-1,1.343768852E0
8.928905083E0,1.673276653E0,6.176103260E-3,8.513019741E-2,1.675452194E0
8.938867083E0,2.297687072E0,3.142055418E-1,4.081333137E-1,2.354710981E0
8.948830083E0,3.267052224E0,5.834156627E-1,-5.892975962E-1,3.370649155E0
8.958792083E0,2.951834383E0,1.151538810E0,4.331997424E-1,3.197972775E0
8.968755083E0,2.646080845E0,1.221378758E0,-7.367023945E-2,2.915293675E0
8.978717083E0,1.609432075E0,1.398522422E0,-1.887984073E-1,2.140509614E0
8.988680083E0,2.835596633E-1,1.090737415E0,1.625140035E-1,1.138650514E0
8.998642083E0,-3.357566702E-2,7.773661979E-1,-3.340268719E-1,8.467582195E-1
9.008605083E0,2.425605220E-1,1.094725070E0,3.302864081E-1,1.168908763E0
9.018567083E0,8.020369895E-3,6.993382479E-1,-1.452910298E-1,7.143163128E-1
9.028530083E0,1.526509019E-1,8.103819895E-1,1.930066484E-1,8.469196143E-1
9.038492083E0,3.085173247E-2,5.715690576E-1,-2.220877755E-1,6.139755671E-1
9.048454083E0,1.351965246E-1,8.260335240E-1,6.022807539E-2,8.391882411E-1
9.058417083E0,1.201718847E-2,9.424631724E-2,-4.830034018E-2,1.065819121E-1
9.068379083E0,8.483403593E-2,-5.172501784E-2,1.968927079E-1,2.205425799E-1
9.078342083E0,1.454594479E-2,4.836807651E-2,1.993900537E-3,5.054731422E-2
9.088304083E0,5.996648557E-2,1.629911363E-4,2.669487834E-2,6.564009817E-2
9.098267083E0,3.559768444E-2,3.020013794E-2,-1.051802999E-1,1.150744931E-1
9.108229083E0,5.226656594E-2,1.650182929E-2,8.136985302E-3,5.541042153E-2
9.118192083E0,1.624449698E-2,2.010311114E-2,6.067655683E-2,6.595197729E-2
9.128154083E0,2.840476408E-2,3.623296615E-2,8.058515668E-2,9.280962200E-2
9.138117083E0,2.732753337E-2,4.214749787E-2,2.746437192E-3,5.030654604E-2
9.148079083E0,3.188699570E-2,4.520836908E-2,-5.608006060E-2,7.877531547E-2
9.158042083E0,3.123165531E-2,2.904288260E-2,-3.497278154E-2,5.515433593E-2
9.168004083E0,2.300528526E-2,3.459757302E-2,3.463247359E-2,5.408921737E-2
9.177967083E0,-1.208435379E-2,2.822606312E-2,3.612994552E-2,4.741429330E-2
9.187929083E0,-2.805750251E-1,5.125521233E-2,-4.832770514E-1,5.611649935E-1
9.197892083E0,5.918244705E-2,-2.623345993E-2,2.519074059E-1,2.600924789E-1
9.207854083E0,3.213696966E-1,-6.876248863E-2,4.134051633E-1,5.281198640E-1
9.217817083E0,3.090656199E-1,-5.928068027E-2,3.985421258E-1,5.078105774E-1
9.227779083E0,-7.241709891E-2,-6.332775749E-2,-1.546775651E-1,1.821532054E-1
9.237741083E0,-5.370984057E-1,-8.020656774E-2,-8.800913250E-1,1.034151116E0
9.247704083E0,-3.201054554E-1,-1.145597235E0,1.107485449E0,1.625233690E0
9.257666083E0,-1.194854180E0,-6.463071448E-1,-6.585508490E-1,1.509661769E0
9.267629083E0,-2.883495050E0,-1.164843016E-1,-5.589534706E-1,2.939479763E0
9.277591083E0,-3.787789462E0,6.683507824E-1,2.255183369E-1,3.852908031E0
9.287554083E0,-3.850711057E0,1.382564639E0,1.791984487E-1,4.095311064E0
9.297516083E0,-2.528438082E0,1.647698301E0,3.222388852E-1,3.035085950E0
9.307479083E0,-9.537228998E-1,1.640293241E0,1.687711090E-1,1.904897103E0
9.317441083E0,-2.730238577E-1,8.850854319E-1,-1.052557290E-2,9.262985676E-1
9.327404083E0,3.308928374E-1,-4.042675732E-1,1.232750934E-1,5.367672580E-1
9.337366083E0,8.306073622E-1,-8.137746171E-1,1.716900390E-1,1.175421281E0
9.347329083E0,9.275175796E-1,-9.920024280E-1,9.514530838E-2,1.361400128E0
9.357291083E0,1.375949977E0,-7.137012754E-1,-3.227546096E-2,1.550370779E0
9.367254083E0,1.266233992E0,-5.079016500E-1,-2.890383947E-1,1.394580869E0
9.377216083E0,7.973570243E-1,-8.657339256E-1,-1.749580479E-1,1.189909145E0
9.387179083E0,6.108020839E-1,-6.229515383E-1,5.730271339E-3,8.724566699E-1
9.397141083E0,-6.090295371E-2,-5.219447616E-2,1.351969814E-1,1.571994176E-1
9.407104083E0,-3.484953685E-1,9.209817812E-1,7.062267065E-2,9.872406114E-1
9.417066083E0,-4.772790507E-1,1.159791570E0,1.200784206E-2,1.254215279E0
9.427028583E0,-6.514554720E-1,1.078292530E-1,6.632847548E-2,6.636421072E-1
9.436991583E0,-1.308305878E0,-1.438159673E0,2.292535383E-1,1.957683504E0
9.446953583E0,-1.367090129E0,-1.933668954E0,1.367166728E-1,2.372067135E0
9.456916583E0,-2.166697820E-1,-1.758639570E0,8.559154272E-3,1.771957164E0
9.466878583E0,9.250001340E-1,-1.457536323E0,-6.507951021E-2,1.727504768E0
9.476841583E0,1.376183134E0,-1.347918571E0,7.974608123E-2,1.927984422E0
9.486803583E0,1.614296228E0,-1.578358948E0,7.893507242E-2,2.259070611E0
9.496766583E0,1.781479671E0,-2.058164069E0,3.247894406E-2,2.722271852E0
9.506728583E0,1.196451127E0,-2.249218040E0,1.073431849E-2,2.547664090E0
9.516691583E0,-2.549930181E-1,-1.935666070E0,1.062719750E-1,1.955279598E0
9.526653583E0,-1.745597063E0,-1.357186262E0,3.889450908E-2,2.211464772E0
9.536616583E0,-2.614228722E0,-9.616213918E-1,-8.117514074E-2,2.786664120E0
9.546578583E0,-2.516832821E0,-8.527190102E-2,-1.718666250E-1,2.524134878E0
9.556541583E0,-1.774102970E0,5.285776238E-1,-4.329161525E-2,1.851677568E0
9.566503583E0,-9.482934677E-1,5.786801489E-1,9.310463011E-2,1.114809261E0
9.576466583E0,-3.026466197E-1,5.339319192E-1,1.965605861E-1,6.444488612E-1
9.586428583E0,1.356993669E-1,3.284937614E-1,1.387520885E-1,3.815424112E-1
9.596391583E0,7.184574737E-1,-2.237160423E-1,2.107278049E-2,7.527775708E-1
9.606353583E0,2.985337796E-1,-1.189537233E0,2.633527458E-2,1.226708928E0
9.616316583E0,1.679510735E-1,-1.261953391E0,1.204941577E-1,1.278770021E0
9.626278583E0,3.468287659E-1,-1.074495166E0,2.426997954E-1,1.154873692E0
9.636240583E0,9.282014480E-2,-1.269914083E0,3.243105537E-1,1.313953840E0
9.646203583E0,-7.849354917E-1,-9.519843033E-1,2.842027473E-1,1.266163118E0
9.656165583E0,-2.462548148E0,-1.127243410E0,-3.663917953E-1,2.732958842E0
9.666128583E0,-2.852186426E0,-9.715754724E-1,-8.590933889E-1,3.133204072E0
9.676090583E0,-3.187974772E0,-8.489193799E-1,2.312094319E-1,3.307159666E0
9.686053583E0,-2.009036786E0,-6.675461324E-1,3.201338875E-1,2.141105404E0
9.696015583E0,-1.362533248E0,-3.310379945E-1,-2.952376127E-2,1.402481607E0
9.705978583E0,-1.157976521E0,-2.334616880E-2,2.812627673E-2,1.158553303E0
9.715940583E0,-2.791579707E-1,-3.863200929E-1,2.426775759E-1,5.348502526E-1
9.725903583E0,-1.432139800E-2,-1.015734376E0,2.519413197E-1,1.046611606E0
9.735865583E0,4.173933664E-1,-9.940187672E-1,-4.297077852E-1,1.160577146E0
9.745828583E0,3.640777597E-1,-2.230704001E0,-7.740076303E-1,2.389075295E0
9.755790583E0,1.072784819E-1,-3.189069370E0,3.889801741E-1,3.214494937E0
9.765753583E0,-1.237542179E-1,-3.719195191E0,8.060486180E-1,3.807550702E0
9.775715583E0,-5.266097891E-2,-3.092097099E0,6.302994418E-1,3.156123419E0
9.785678583E0,1.384594208E0,-1.522088853E0,4.932904083E-1,2.115937386E0
9.795640583E0,1.915325946E0,-8.162558100E-1,-9.659103245E-1,2.295153542E0
9.805603583E0,1.670152340E0,2.645270859E-1,-8.532736552E-1,1.894058961E0
9.815565583E0,1.009299588E0,7.397539102E-1,1.320244576E0,1.819056692E0
9.825527583E0,2.083411030E0,6.776161341E-1,2.074375767E-1,2.200635248E0
9.835490583E0,2.255228246E0,3.057853502E-1,-1.649162151E0,2.810568434E0
9.845452583E0,1.960147193E0,2.394185207E-1,9.372817719E-1,2.185862614E0
9.855415583E0,1.608327244E0,-7.857752249E-1,7.509198993E-1,1.941143972E0
9.865377583E0,2.831203985E0,-9.595571785E-1,-1.055031247E0,3.170103613E0
9.875340583E0,2.700795873E0,-1.510588512E-1,-6.573498309E-2,2.705815628E0
9.885302583E0,2.387895430E0,-6.753947769E-1,1.023184971E0,2.684233629E0
9.895265583E0,2.803331770E0,-6.203658995E-1,-6.493023080E-1,2.943656968E0
9.905227583E0,2.614357654E0,-2.610596871E-1,-3.595131308E-1,2.651842339E0
9.915190583E0,1.961253778E0,-4.520092119E-1,9.675112921E-1,2.233138332E0
9.925152583E0,1.372620426E0,-1.930919812E-1,-4.988271368E-1,1.473159821E0
9.935115583E0,-2.604157259E-1,6.787928497E-2,-2.222684544E-1,3.490375531E-1
9.945077583E0,2.700383242E-1,-1.108510210E-1,6.174227035E-1,6.829490759E-1
9.955040583E0,-1.696263008E-1,4.436286170E-2,-5.217827207E-1,5.504528618E-1
9.965002583E0,1.743954178E-1,-8.436538160E-2,3.781897223E-1,4.249220463E-1
9.974965583E0,-2.671705665E-2,-2.256075069E-2,-7.478881180E-2,8.256000823E-2
9.984927583E0,3.469267250E-2,-5.051230531E-2,5.274948657E-2,8.085532046E-2
9.994890583E0,6.059509780E-2,-5.528308511E-2,1.572450775E-1,1.773527552E-1
1.000485258E1,-2.075608524E-2,-2.550244834E-3,-1.357138753E-1,1.373156028E-1
1.001481558E1,7.758769121E-2,-2.684189927E-2,1.728150433E-1,1.913253161E-1
1.002477758E1,-5.327361636E-3,2.237426106E-2,-1.228365523E-1,1.249712243E-1
1.003473958E1,9.341205661E-2,-7.895075027E-3,1.298532110E-1,1.601561767E-1
1.004470258E1,3.627026956E-2,1.820746209E-2,-6.295463204E-2,7.490213499E-2
1.005466458E1,7.367988735E-2,2.067283094E-3,2.014365792E-3,7.373640301E-2
1.006462758E1,5.911771654E-2,3.675157763E-3,-4.888213813E-2,7.679762120E-2
1.007458958E1,6.328895574E-2,-8.357096426E-3,-2.119147897E-2,6.726374774E-2
1.008455258E1,6.721609652E-2,-1.214662207E-2,8.146925569E-3,6.878892683E-2
1.009451458E1,5.154137872E-2,-1.151048156E-2,6.427084029E-2,8.318500957E-2
1.010447758E1,5.735251066E-2,-2.763087139E-2,8.957466602E-2,1.098926582E-1
1.011443958E1,3.142635845E-2,-3.913378811E-2,-3.063297808E-2,5.880007418E-2
1.012440258E1,4.325676493E-2,-4.003952181E-2,1.053434372E-2,5.987723621E-2
1.013436458E1,2.341524360E-2,-3.566609686E-2,1.411985636E-2,4.494123320E-2
1.014432758E1,3.049774752E-2,-1.816861466E-2,1.082764006E-1,1.139473127E-1
1.015428958E1,2.110748006E-2,-1.988164784E-2,5.318978190E-2,6.058018269E-2
1.016425258E1,2.260989471E-2,-2.051764218E-2,1.591553628E-2,3.443087677E-2
1.017421458E1,2.249511113E-2,-2.227111252E-2,-9.530961514E-3,3.305861015E-2
1.018417758E1,4.029761243E-2,-1.297769414E-2,-7.324807048E-3,4.296476360E-2
1.019413958E1,-3.178729154E-1,1.093839363E-1,-7.442371166E-1,8.166375705E-1
1.020410258E1,2.350973187E-1,-8.869171819E-2,8.982288033E-1,9.327121491E-1
1.021406458E1,-6.955378501E-1,-9.934082448E-1,1.685680352E0,2.076571956E0
1.022402658E1,-1.825475145E0,-1.784718006E0,-2.805339119E0,3.793086532E0
1.023398958E1,-2.823598804E0,-1.141838133E0,2.240068901E0,3.780795314E0
1.024395158E1,-3.717364135E0,-2.475741220E0,-1.191211730E0,4.622453471E0
1.025391458E1,-3.652262698E0,-3.009549910E0,2.326648039E-1,4.738200754E0
1.026387658E1,-2.908429039E0,-2.557249652E0,6.917384756E-1,3.934080246E0
1.027383958E1,-2.295490127E0,-2.259616874E0,-9.219965655E-1,3.350406096E0
1.028380158E1,-1.064222119E0,-1.596576679E0,1.204557415E0,2.265520774E0
1.029376458E1,-6.878158709E-1,-1.750146635E0,-8.389017838E-1,2.059092062E0
1.030372658E1,-2.686875535E-2,-1.786943163E0,6.133577192E-1,1.889469632E0
1.031368958E1,-4.276379897E-2,-1.971677610E0,-6.784056544E-2,1.973307802E0
1.032365158E1,3.023249497E-1,-2.119984633E0,-5.597656488E-2,2.142164465E0
1.033361458E1,8.494899950E-1,-1.970919811E0,4.563886303E-1,2.194185209E0
1.034357658E1,1.035037424E0,-2.012523042E0,-4.246698242E-1,2.302584618E0
1.035353958E1,6.308379704E-1,-1.638328430E0,4.980020946E-1,1.824851412E0
1.036350158E1,1.184998405E0,-1.957099916E0,-2.953229821E-1,2.306876019E0
1.037346458E1,1.307880346E0,-1.704049234E0,2.446972042E-1,2.161992487E0
1.038342658E1,1.202689302E0,-1.594494632E0,-6.395099759E-3,1.997226974E0
1.039338958E1,8.212860965E-1,-1.695804221E0,1.298842013E-2,1.884258875E0
1.040335158E1,7.036495462E-1,-1.757871830E0,-6.526311278E-2,1.894596350E0
1.041331458E1,4.479543506E-1,-1.615970139E0,2.645952791E-1,1.697655222E0
1.042327658E1,1.042839948E0,-1.337384373E0,-1.978171527E-1,1.707408488E0
1.043323838E1,9.027212191E-1,-1.233422779E0,3.604597950E-1,1.570403966E0
1.044320137E1,1.047619243E0,-1.503602442E0,-9.067394257E-2,1.834815562E0
1.045316338E1,1.308101517E0,-1.356873289E0,-9.382851541E-2,1.887071407E0
1.046312637E1,6.770869611E-1,-1.350481990E0,3.195269465E-1,1.544132711E0
1.047308838E1,9.511027076E-2,-1.447185582E0,-2.890179294E-1,1.478825018E0
1.048305138E1,-1.595090317E0,-1.426337919E0,1.644956249E-1,2.146115511E0
1.049301337E1,-2.918866319E0,-1.789904632E0,3.286041641E-1,3.439697643E0
1.050297638E1,-1.188922179E0,-2.368988166E0,1.635518843E-1,2.655633653E0
1.051293838E1,1.290062565E0,-2.918865442E0,-3.612041456E-1,3.211620358E0
1.052290137E1,8.502353688E-1,-2.835048529E0,1.626519978E-1,2.964263149E0
1.053286338E1,1.511508024E0,-3.006356745E0,2.597900373E-1,3.374956036E0
1.054282637E1,2.322717394E0,-3.090511335E0,-2.749009967E-2,3.866139173E0
1.055278838E1,2.488358927E0,-3.243934087E0,2.174047405E-1,4.094179201E0
1.056275138E1,2.162672377E0,-3.056725830E0,1.157906574E-1,3.746215702E0
1.057271337E1,1.472282708E0,-2.631157874E0,-6.327856779E-3,3.015070177E0
1.058267638E1,1.028085742E0,-2.071029405E0,-7.535950005E-2,2.313396236E0
1.059263838E1,4.325593627E-1,-1.599603198E0,2.474132359E-2,1.657241722E0
1.060260137E1,4.300407842E-1,-1.145735156E0,1.784429884E-1,1.236723908E0
1.061256338E1,6.906923356E-1,-1.153680937E0,4.278758526E-2,1.345312746E0
1.062252537E1,5.423143414E-1,-1.339307230E0,-2.190899080E-1,1.461454443E0
1.063248838E1,3.792756964E-1,-1.255433453E0,2.004238415E-1,1.326700014E0
1.064245038E1,7.536976922E-1,-1.626988779E0,-9.706377983E-4,1.793084950E0
1.065241337E1,1.900046441E0,-1.768069228E0,3.959366065E-1,2.625454450E0
1.066237538E1,3.121715878E0,-1.454605844E0,4.125198948E-1,3.468596380E0
1.067233838E1,4.538320229E0,-1.737700398E0,-8.223746288E-1,4.928717197E0
1.068230037E1,3.880473385E0,-1.231225688E0,2.043976092E-1,4.076244444E0
1.069226338E1,3.375903406E0,-9.004296952E-1,6.109053969E-1,3.546928649E0
1.070222537E1,3.250953085E0,-8.074368931E-1,-6.057060528E-1,3.404046139E0
1.071218838E1,2.390263698E0,-1.093385838E-1,1.922254604E-1,2.400472058E0
1.072215038E1,2.511507761E0,3.534490565E-1,3.209250158E-1,2.556480068E0
1.073211337E1,2.446619455E0,5.273216419E-1,-3.256220841E-1,2.523894731E0
1.074207538E1,2.347893897E0,9.891213586E-1,-3.645563543E-2,2.547998396E0
1.075203838E1,2.588286381E0,1.315697928E0,4.468880743E-1,2.937685548E0
1.076200037E1,1.606082790E0,1.071949215E0,-5.568034494E-1,2.009628605E0
1.077196338E1,-7.187522190E-2,1.110027233E0,1.923839200E-1,1.128865837E0
1.078192537E1,1.201042123E-1,6.220729941E-1,-1.059983253E-2,6.336498941E-1
1.079188838E1,-8.912956500E-3,8.090258740E-1,-1.132968199E-1,8.169690784E-1
1.080185038E1,1.394210466E-1,7.437391531E-1,1.880259901E-1,7.797050269E-1
1.081181337E1,1.056526087E-2,5.285729826E-1,-1.643453515E-1,5.536338295E-1
1.082177538E1,1.007203818E-1,2.431410409E-1,9.102360606E-2,2.784734421E-1
1.083173738E1,4.788027712E-2,-3.150384776E-2,5.794356823E-2,8.150135250E-2
1.084170037E1,4.218047068E-2,5.294765236E-2,1.631373167E-4,6.769544011E-2
1.085166238E1,3.868101718E-2,8.425910845E-3,3.593874156E-2,5.346784276E-2
1.086162537E1,1.669782978E-2,1.729840279E-2,6.897960305E-3,2.501267908E-2
1.087158738E1,2.350045307E-2,3.112838343E-2,3.144807994E-2,5.010218839E-2
1.088155038E1,-3.883222709E-3,2.006651122E-2,-7.920638323E-3,2.191987232E-2
1.089151237E1,1.780634767E-2,2.767013909E-2,-6.872817278E-3,3.361455387E-2
1.090147538E1,1.306072460E-2,1.841989875E-2,-2.184227407E-2,3.141592166E-2
1.091143738E1,1.967146328E-2,1.370888846E-2,2.531084239E-2,3.486457849E-2
1.092140037E1,1.437745362E-2,2.417480148E-2,3.309231699E-2,4.343079141E-2
1.093136238E1,2.055586835E-2,2.986973371E-2,2.650601327E-2,4.491451275E-2
1.094132537E1,1.799714049E-2,4.052681414E-2,-1.585238636E-2,4.709159037E-2
1.095128738E1,1.530463016E-2,1.555512853E-2,-7.033089459E-2,7.363849850E-2
1.096125038E1,-7.072998533E-2,4.081573969E-2,-2.549000108E-1,2.676614857E-1
1.097121237E1,1.699414292E-1,-2.344057392E-2,4.249925905E-1,4.583102136E-1
1.098117538E1,6.340537014E-2,-8.319692519E-3,1.530192947E-1,1.658443934E-1
1.099113738E1,-1.399005091E-1,-5.486080650E-2,-2.954545444E-1,3.314743555E-1
1.100110037E1,7.849919904E-2,-6.770551669E-1,2.378939688E-1,7.219136816E-1
1.101106238E1,-1.029496785E-1,-7.922365444E-1,-3.367686313E-1,8.669777908E-1
1.102102537E1,2.957482848E-2,-1.976867964E-1,1.223219973E-1,2.343446414E-1
1.103098738E1,-2.447735104E-1,1.384970220E-1,1.223307681E-1,3.066925388E-1
1.104094938E1,-3.395755872E0,-4.620360173E-3,-4.934354192E-1,3.431422126E0
1.105091237E1,-4.585383006E0,9.516853644E-1,5.345349133E-2,4.683406839E0
1.106087438E1,-5.514530132E0,9.801614508E-1,2.360936111E-1,5.605934288E0
1.107083738E1,-3.837845429E0,7.943307247E-1,1.415441340E-1,3.921741141E0
1.108079937E1,-1.864525775E0,5.544515165E-1,1.215063107E-1,1.949009141E0
1.109076238E1,-1.202195140E0,5.110989075E-2,3.945116401E-3,1.203287554E0
1.110072437E1,-1.103239493E0,-3.957498976E-1,2.531265503E-1,1.199094830E0
1.111068738E1,-1.314981790E0,-2.465819373E0,3.399296361E-1,2.815136665E0
1.112064938E1,-4.808673042E-1,-3.199571262E0,4.469412839E-1,3.266228121E0
1.113061237E1,3.527328091E-1,-3.361579481E0,8.254514337E-1,3.479368781E0
1.114057438E1,3.530539675E-1,-4.004674093E0,1.168729770E0,4.186644357E0
1.115053738E1,-7.825355751E-1,-4.350088125E0,-3.785581554E0,5.819472168E0
1.116049937E1,-4.861760644E-1,-3.896835356E0,1.417528211E0,4.175054394E0
1.117046238E1,-4.106912512E-1,-3.259239466E0,8.459880245E-1,3.392197657E0
1.118042437E1,-5.085216376E-1,-2.502582279E0,1.763058311E-1,2.559803912E0
1.119038738E1,-3.536852840E-1,-2.101014073E0,1.991544110E-1,2.139863522E0
1.120034938E1,1.094954866E0,-1.879480467E0,-7.002315563E-1,2.285103328E0
1.121031237E1,1.520339512E0,-1.628152667E0,-3.617122686E-1,2.256800634E0
1.122027438E1,1.124079993E0,-1.518846279E0,5.578009844E-1,1.970175573E0
1.123023638E1,1.584751709E0,-1.546747146E0,2.526903480E-1,2.228837617E0
1.124019937E1,2.118837848E0,-1.384907180E0,3.193632245E-1,2.551359362E0
1.125016138E1,3.031168235E0,-1.571166726E0,-5.572302961E-1,3.459342619E0
1.126012437E1,2.307388772E0,-1.292639433E0,-2.776965505E-1,2.659337328E0
1.127008638E1,3.523136734E-1,-1.074904763E0,7.710296434E-1,1.368952843E0
1.128004938E1,1.374647966E-2,-1.517767614E0,7.669032633E-2,1.519766068E0
1.129001137E1,2.616675051E-1,-1.526985603E0,-4.376331013E-1,1.609868829E0
1.129997438E1,3.073334919E-1,-1.317856866E0,-1.028151011E-1,1.357118837E0
1.130993638E1,8.586741253E-2,-1.023496847E0,4.212620670E-1,1.110126451E0
1.131989937E1,3.309132661E-1,-9.966863400E-1,2.059307492E-1,1.070184434E0
1.132986138E1,7.324326114E-1,-9.409356970E-1,-2.124644279E-2,1.192589170E0
1.133982437E1,7.337798830E-1,-7.384814829E-1,-1.782506150E-1,1.056201259E0
1.134978638E1,8.057952873E-1,-5.848659184E-1,2.086245614E-1,1.017299560E0
1.135974938E1,1.790176674E0,-7.901900189E-1,-1.306905323E-1,1.961176383E0
1.136971137E1,1.558325948E0,-6.292142717E-1,1.372996402E-1,1.686161781E0
1.137967438E1,1.738187471E0,-8.264397593E-1,2.044420481E-1,1.935483121E0
1.138963638E1,1.713022371E0,-9.167344368E-1,-2.827801198E-1,1.963367583E0
1.139959937E1,9.102644196E-1,-5.904267666E-1,1.715970683E-1,1.098467402E0
1.140956138E1,7.351601914E-1,-6.435949869E-1,-1.600903326E-1,9.901029890E-1
1.141952438E1,-3.926732755E-1,-4.515866775E-1,1.724221104E-1,6.227778197E-1
1.142948633E1,-3.989282248E-1,-6.616535278E-1,1.054212052E-1,7.797709599E-1
1.143944833E1,-1.147015842E0,-6.376558238E-1,-4.767527282E-2,1.313211036E0
1.144941133E1,-1.270559469E0,-5.239795927E-1,1.883914411E-2,1.374492958E0
1.145937333E1,-1.016966750E0,-7.577063240E-1,2.584586263E-1,1.294272423E0
1.146933633E1,-4.263412508E-1,-1.133808517E0,-2.379226202E-1,1.234461741E0
1.147929833E1,1.197879237E-1,-8.105317513E-1,2.215270275E-1,8.487550238E-1
1.148926133E1,1.612146060E0,-7.847860953E-1,4.042969555E-1,1.838031600E0
1.149922333E1,2.720817909E0,-8.438460432E-1,-6.356525677E-1,2.918729248E0
1.150918633E1,2.511582313E0,-3.951321027E-1,4.034210426E-1,2.574281188E0
1.151914833E1,2.432339239E0,-4.517720342E-1,-1.226927108E-1,2.476979137E0
1.152911133E1,2.210143729E0,-3.363083824E-1,-2.041572887E-1,2.244887264E0
1.153907333E1,1.856598120E0,-1.189782853E-1,3.047171187E-1,1.885196259E0
1.154903633E1,1.831894657E0,-1.663676475E-1,-7.293115139E-2,1.840878915E0
1.155899833E1,9.528654056E-1,-7.311983373E-2,-9.633872509E-3,9.557153356E-1
1.156896133E1,4.907735474E-1,9.288983630E-2,1.705129945E-1,5.277896151E-1
1.157892333E1,1.007354220E0,3.784512390E-1,-3.761496288E-1,1.139945791E0
1.158888633E1,1.866191500E0,9.983725309E-1,1.714538115E-1,2.123397004E0
1.159884833E1,2.303929961E-2,6.036896770E-1,7.369479775E-2,6.086073929E-1
1.160881133E1,-9.721536890E-2,-4.939055353E-2,-1.326148510E-3,1.090505085E-1
1.161877333E1,1.148827493E-1,-5.702727299E-2,1.504915434E-1,1.977317895E-1
1.162873533E1,-1.208887625E-1,-1.892652344E-3,-2.077428013E-1,2.403637796E-1
1.163869833E1,6.858288774E-2,-5.843672605E-2,2.702390116E-1,2.848641551E-1
1.164866033E1,-4.767279689E-2,-4.366042838E-3,2.084240019E-2,5.221267604E-2
1.165862333E1,2.250444383E-2,-5.210245561E-2,1.636571342E-1,1.732188599E-1
1.166858533E1,2.100273724E-2,-3.771079509E-2,-5.264657557E-2,6.807996002E-2
1.167854833E1,2.938623750E-2,-3.549996285E-2,-3.139253139E-2,5.576100200E-2
1.168851033E1,6.416111363E-2,-2.035156298E-2,4.555448771E-2,8.127758589E-2
1.169847333E1,6.876877895E-2,3.739696406E-3,-1.626987755E-2,7.076608795E-2
1.170843533E1,1.053557255E-1,9.011966307E-3,4.825239301E-2,1.162296772E-1
1.171839833E1,6.006685669E-2,1.331984762E-2,-5.892999351E-2,8.519501011E-2
1.172836033E1,9.213949235E-2,7.912598401E-3,-5.892414629E-2,1.096555985E-1
1.173832333E1,6.270352154E-2,4.741927441E-3,-7.748788655E-2,9.979273546E-2
1.174828533E1,5.634590335E-2,3.832539227E-3,6.111860633E-2,8.321678449E-2
1.175824833E1,5.925445459E-2,4.039695114E-3,7.203711212E-2,9.336356381E-2
1.176821033E1,5.637590687E-2,-1.592140177E-2,-4.163217545E-4,5.858248231E-2
1.177817333E1,2.265370315E-2,-1.832535658E-2,-1.568632543E-2,3.309183835E-2
1.178813533E1,2.648437401E-2,-1.801662359E-2,-1.853275001E-2,3.700653476E-2
1.179809833E1,3.703835158E-2,-2.071917012E-2,4.792787254E-2,6.401722006E-2
1.180806033E1,2.688603661E-2,-6.576326899E-3,2.621482193E-2,3.812248587E-2
1.181802233E1,-1.185996689E-2,-6.866092980E-4,-1.000014210E-1,1.007045900E-1
1.182798533E1,2.154783387E-1,-8.735847993E-2,6.071292651E-1,6.501294971E-1
1.183794733E1,-1.467169282E-1,-4.341649350E-1,-6.058510637E-1,7.596581858E-1
1.184791033E1,-8.302662503E-3,-5.769903767E-1,2.632515889E-1,6.342619554E-1
1.185787233E1,-1.028894704E-1,-1.180752376E0,3.152701735E-2,1.185645972E0
1.186783533E1,-9.464134417E-1,-1.094124488E0,1.581087112E-3,1.446654519E0
1.187779733E1,-1.731677328E0,-2.197867207E0,2.546111584E-1,2.809653621E0
1.188776033E1,-2.745062804E0,-2.716754679E0,-3.297420323E-1,3.876190861E0
1.189772233E1,-4.189080364E0,-2.189599536E0,4.202920139E-1,4.745459493E0
1.190768533E1,-4.603461135E0,-1.804271095E0,1.916419083E-1,4.948128457E0
1.191764733E1,-3.741889112E0,-1.431890873E0,-8.168390697E-1,4.088920599E0
1.192761033E1,-3.825336188E0,-6.965555580E-1,8.790873581E-1,3.986374441E0
1.193757233E1,-2.330471679E0,-1.982585627E-1,-3.191059470E-2,2.339107306E0
1.194753533E1,-2.830604389E-1,1.842000107E-1,-4.266847748E-1,5.441624326E-1
1.195749733E1,7.479926370E-1,2.150056279E-1,-6.151855588E-2,7.807079721E-1
1.196746033E1,1.234251038E0,1.016369055E-1,3.533367169E-1,1.287848019E0
1.197742233E1,2.222203757E0,4.018330850E-2,4.770813417E-1,2.273193974E0
1.198738533E1,2.272038260E0,-4.150130745E-1,1.689564657E-1,2.315802236E0
1.199734733E1,1.718158565E0,-9.622960874E-1,-9.109055668E-1,2.169753803E0
1.200730933E1,1.684583560E0,-7.698732103E-1,8.533280343E-1,2.039287931E0
1.201727233E1,1.920712401E0,-1.164486300E0,-7.945781350E-2,2.247549335E0
1.202723433E1,1.747545794E0,-1.348502415E0,-4.052518058E-1,2.244237976E0
1.203719733E1,1.157914322E0,-1.212132483E0,7.625991279E-1,1.841626499E0
1.204715933E1,5.562495353E-1,-1.528094382E0,-4.876536924E-1,1.697731460E0
1.205712233E1,2.102503067E-1,-1.308152096E0,3.132341731E-1,1.361463457E0
1.206708433E1,-2.760688866E-1,-1.418785509E0,-2.770878553E-2,1.445660447E0
1.207704733E1,-5.188583454E-1,-1.398127296E0,-1.193077576E-1,1.496064257E0
1.208700933E1,1.599639780E-1,-1.224046111E0,5.926270008E-2,1.235875975E0
1.209697233E1,3.881793248E-1,-1.022469272E0,-9.452608824E-3,1.093716578E0
1.210693433E1,6.271678193E-1,-7.288576969E-1,9.655039430E-2,9.663824266E-1
1.211689733E1,1.138330681E0,-8.347226326E-1,-9.982600451E-2,1.415105594E0
1.212685933E1,1.563429837E0,-8.749318150E-1,-3.724617898E-2,1.791983765E0
1.213682233E1,1.918809717E0,-6.246779287E-1,8.011387110E-2,2.019522586E0
1.214678433E1,1.676118985E0,-6.087509172E-1,7.054080963E-2,1.784636808E0
1.215674733E1,1.476549568E0,-6.345600886E-1,1.355337811E-1,1.612834318E0
1.216670933E1,1.145879217E0,-5.706178984E-1,4.469904006E-2,1.280875470E0
1.217667233E1,1.141541460E0,-4.164264562E-1,-2.402328551E-2,1.215362093E0
1.218663433E1,1.041624677E0,-3.265252597E-1,1.371920514E-1,1.100191971E0
1.219659733E1,9.480458381E-1,-1.569998051E-1,9.167966366E-2,9.653211956E-1
1.220655933E1,9.656718311E-1,-3.505900970E-2,1.997408867E-3,9.663101000E-1
1.221652133E1,1.348041655E0,1.530032332E-1,8.776378334E-2,1.359532557E0
1.222648433E1,1.475801270E0,2.039871347E-1,-6.866268396E-2,1.491413660E0
1.223644633E1,1.210687416E0,2.980322164E-1,1.049867570E-1,1.251243158E0
1.224640933E1,9.027270663E-1,2.551020504E-1,-9.335898399E-2,9.427136958E-1
1.225637133E1,6.451794362E-1,6.802294741E-1,5.529711843E-2,9.391626130E-1
1.226633433E1,5.428261189E-1,7.333185377E-1,-1.044078827E-1,9.183230799E-1
1.227629633E1,1.761506240E-1,7.665525035E-1,5.099239826E-2,7.881827248E-1
1.228625933E1,7.694426908E-2,6.301000518E-1,-1.708632427E-1,6.573741275E-1
1.229622133E1,6.513683120E-2,8.410348481E-1,4.080011666E-2,8.445395621E-1
1.230618433E1,2.604899399E-2,7.209216365E-1,-3.299408376E-2,7.221462218E-1
1.231614633E1,8.391200997E-3,4.576333563E-1,2.807891428E-2,4.585707432E-1
1.232610933E1,4.021127007E-2,2.373261676E-1,1.069683784E-1,2.634063212E-1
1.233607133E1,6.359196485E-3,-6.746042334E-4,1.446074903E-2,1.581163285E-2
1.234603433E1,3.879363547E-2,4.375018314E-2,8.407068193E-2,1.024055869E-1
1.235599633E1,-3.194624559E-3,7.328602256E-2,1.206514478E-2,7.434120289E-2
1.236595933E1,2.132586214E-2,6.402156617E-2,7.673008740E-2,1.021815034E-1
1.237592133E1,6.073424669E-3,6.540662538E-2,2.792688668E-2,7.137803675E-2
1.238588433E1,1.346720088E-2,4.634336846E-2,4.718703032E-3,4.849061206E-2
1.239584633E1,3.437343737E-2,5.948756207E-3,4.273554504E-2,5.516563882E-2
1.240580833E1,3.096896686E-2,-1.379862495E-2,-1.639559269E-2,3.766024985E-2
1.241577133E1,6.310934572E-2,-4.308177330E-2,1.369417906E-2,7.762962867E-2
1.242573333E1,3.413553106E-2,-4.973639807E-2,-7.177632630E-2,9.375918510E-2
1.243569563E1,4.616410105E-2,-6.687232135E-2,-5.290209889E-2,9.696217642E-2
1.244565762E1,3.012100182E-2,-4.819368331E-2,1.417131186E-2,5.857245036E-2
1.245562063E1,4.656724259E-3,-2.046348235E-2,1.312425095E-1,1.329098773E-1
1.246558263E1,9.049708256E-5,1.164178809E-2,-2.113066792E-2,2.412559940E-2
1.247554562E1,1.013017778E-2,3.064238844E-2,-1.887715101E-2,3.738881252E-2
1.248550763E1,-1.100757761E-2,4.361946132E-2,-5.944104016E-2,7.454570025E-2
1.249547062E1,-7.244473500E-3,4.722980635E-2,1.344011754E-1,1.426422551E-1
1.250543263E1,-4.373877193E-5,5.116357550E-2,7.047590554E-2,8.708941745E-2
1.251539563E1,3.369272439E-3,2.329854140E-2,5.205308318E-2,5.712877993E-2
1.252535762E1,7.819201123E-3,3.024748212E-2,-1.232242227E-2,3.358410593E-2
1.253532063E1,2.746373695E-2,3.971964257E-2,3.796772540E-2,6.142845452E-2
1.254528263E1,1.706706090E-2,4.309672024E-2,1.147457600E-2,4.775225395E-2
1.255524562E1,1.693726641E-2,3.166766116E-2,4.874882162E-2,6.054881804E-2
1.256520763E1,2.566258896E-2,9.514077678E-3,1.282703698E-2,3.022613147E-2
1.257517063E1,1.931467806E-2,1.423352988E-2,2.884957731E-2,3.752263680E-2
1.258513263E1,2.796416268E-2,-2.027706580E-2,-2.009220243E-2,3.996061048E-2
1.259509563E1,5.688934266E-2,-2.124150921E-2,-1.036068141E-2,6.160310658E-2
1.260505762E1,4.200692715E-2,-3.577501953E-2,-4.403655052E-2,7.059498376E-2
1.261501963E1,4.258658722E-2,-3.561765634E-2,9.264328480E-3,5.628554553E-2
1.262498263E1,2.140340856E-2,-3.210327873E-2,2.903376460E-2,4.828753348E-2
1.263494462E1,1.579152164E-2,-5.439555086E-3,2.035942018E-2,2.633375980E-2
1.264490763E1,-5.537502801E-3,9.681874495E-3,-2.214808345E-2,2.479798846E-2
1.265486962E1,-4.519040032E-3,2.572528208E-2,-1.345912099E-2,2.938298485E-2
1.266483263E1,-1.903011737E-2,4.486301791E-2,3.099901378E-2,5.775616503E-2
1.267479463E1,-1.334722218E-2,4.158488609E-2,7.440464973E-2,8.627573815E-2
1.268475762E1,-6.465114456E-3,5.734589143E-2,8.128156006E-2,9.968470783E-2
1.269471963E1,-6.288759235E-3,5.215352738E-2,4.669469476E-2,7.028465999E-2
1.270468263E1,2.313470287E-3,3.371418664E-2,-7.349950075E-3,3.458352631E-2
1.271464462E1,2.031142048E-2,1.548317123E-2,-1.737967908E-2,3.089232329E-2
1.272460763E1,4.555616878E-2,-1.271349136E-3,1.794627428E-2,4.898009395E-2
1.273456962E1,4.361083668E-2,-1.402081914E-2,6.060872912E-2,7.597306425E-2
1.274453262E1,4.257879855E-2,-6.402554959E-3,4.683736682E-2,6.362142506E-2
1.275449463E1,5.408588141E-2,-1.780323677E-2,-2.620605111E-2,6.268169527E-2
1.276445762E1,3.344392651E-2,-8.139342461E-3,-5.673260987E-2,6.635762306E-2
1.277441963E1,1.009158159E-2,3.143335227E-3,-3.875943840E-2,4.017480106E-2
1.278438263E1,8.738071077E-3,5.314936303E-4,5.405692399E-2,5.476118518E-2
1.279434462E1,2.003379194E-2,-1.608079322E-2,8.789066792E-2,9.156808525E-2
1.280430763E1,-1.238538490E-3,8.849011716E-3,3.415066302E-2,3.530023754E-2
1.281426962E1,1.955710910E-3,9.514242131E-3,-2.931910872E-2,3.088617401E-2
1.282423163E1,3.541704202E-3,1.466995144E-2,-5.117073834E-2,5.334974795E-2
1.283419463E1,1.488672554E-3,2.992396664E-2,3.280931175E-2,4.443096738E-2
1.284415662E1,-3.307292524E-3,2.495224362E-2,7.532207787E-2,7.941642186E-2
1.285411963E1,-1.804141259E-3,1.976410054E-2,7.726627707E-2,7.977438291E-2
1.286408163E1,5.083401409E-3,2.443958899E-2,2.202646136E-2,3.329113215E-2
1.287404462E1,3.070573937E-3,3.873652462E-2,2.157154799E-2,4.444410474E-2
1.288400663E1,5.707455778E-3,3.019189702E-2,2.666154921E-2,4.068124757E-2
1.289396963E1,1.893496764E-2,1.826164020E-2,4.222800672E-2,4.975163368E-2
1.290393163E1,3.195158460E-2,2.104504276E-3,2.261878431E-2,3.920385313E-2
1.291389463E1,3.989958149E-2,-1.225273076E-2,1.513376355E-2,4.439748657E-2
1.292385662E1,4.514696875E-2,-2.044614170E-2,-1.914612293E-2,5.313066460E-2
1.293381963E1,5.134947128E-2,-2.044014830E-2,-7.316620946E-3,5.575034354E-2
1.294378163E1,2.604746823E-2,-2.225768220E-2,-1.794042706E-2,3.867471966E-2
1.295374462E1,2.131637184E-2,-2.099386135E-2,1.754223168E-2,3.468226946E-2
1.296370663E1,2.270152698E-2,-1.284974976E-2,1.724928617E-2,3.127320370E-2
1.297366963E1,-2.298650108E-3,9.967236891E-3,3.222459018E-2,3.380907890E-2
1.298363163E1,4.707527084E-3,1.808245959E-2,5.433232784E-3,1.945908976E-2
1.299359463E1,-1.707860458E-2,2.129654612E-2,-2.946996689E-3,2.745735604E-2
1.300355662E1,5.642197654E-4,2.513803890E-2,2.878876626E-2,3.822345362E-2
1.301351863E1,-2.822492109E-3,1.789777894E-2,5.617946327E-2,5.902905255E-2
1.302348163E1,-2.702776078E-3,5.349855144E-3,4.644501865E-2,4.683017943E-2
1.303344362E1,-3.729718452E-3,2.155667413E-2,2.772925079E-2,3.532014083E-2
1.304340663E1,1.138475842E-2,2.936214058E-2,-4.005342722E-3,3.174572088E-2
1.305336862E1,6.232474074E-3,1.164569842E-2,1.833686829E-3,1.333523273E-2
1.306333162E1,1.651602363E-2,9.927695096E-3,4.075509310E-2,4.508121316E-2
1.307329363E1,2.239061271E-2,7.039280199E-3,5.886859775E-2,6.337509608E-2
1.308325662E1,2.042738493E-2,-4.296022430E-3,5.587365389E-2,5.964561227E-2
1.309321863E1,2.024504773E-2,2.069304038E-2,-3.184393644E-2,4.303603334E-2
1.310318163E1,1.737259390E-2,3.256533667E-4,-6.087887049E-2,6.330995136E-2
1.311314362E1,2.671227837E-2,-1.273333535E-2,-4.170994341E-2,5.114101118E-2
1.312310663E1,2.255597242E-2,-3.426397109E-2,2.984886646E-2,5.073210459E-2
1.313306863E1,2.654402018E-2,-2.658347061E-2,1.147247100E-1,1.207187848E-1
1.314303162E1,-4.848141200E-3,-1.731641952E-2,6.113263965E-2,6.372254301E-2
1.315299363E1,-3.616454916E-3,6.972804666E-5,-9.678545237E-2,9.685301956E-2
1.316295662E1,4.763724308E-3,2.523491995E-2,-4.214146793E-2,4.934974745E-2
1.317291863E1,-8.562206930E-3,2.823286051E-2,6.893574893E-2,7.498362009E-2
1.318288163E1,-1.448076889E-2,2.012461793E-2,1.141423273E-1,1.168039545E-1
1.319284362E1,-7.631814420E-3,3.437048178E-2,6.638753235E-2,7.514571885E-2
1.320280663E1,1.496504626E-3,2.715788646E-2,-3.855186224E-2,4.718089025E-2
1.321276863E1,-4.796127247E-3,2.327740006E-2,2.057108939E-2,3.143262491E-2
1.322273063E1,2.248457929E-2,2.734227475E-2,5.529419482E-2,6.565519229E-2
1.323269363E1,2.452552479E-2,1.375667118E-3,4.226893723E-2,4.888820799E-2
1.324265562E1,4.945841321E-2,-4.984331075E-3,2.220889449E-2,5.444458824E-2
1.325261863E1,4.360184202E-2,-1.434524825E-2,-2.853382766E-2,5.404707296E-2
1.326258063E1,4.634613218E-2,-1.476056501E-4,-1.416254103E-2,4.846197813E-2
1.327254362E1,2.439731088E-2,3.363994528E-3,4.554396272E-3,2.504571346E-2
1.328250563E1,3.910155533E-2,-1.551761499E-2,-2.309650183E-4,4.206876928E-2
1.329246863E1,1.228612156E-2,-7.322815340E-3,1.189849913E-2,1.860501785E-2
1.330243063E1,1.293480847E-2,-8.443489037E-3,3.788995743E-4,1.545138642E-2
1.331239363E1,2.094160871E-3,4.485435672E-3,3.211524725E-2,3.249451875E-2
1.332235562E1,3.355256823E-3,-2.612901405E-3,3.137323558E-2,3.166014708E-2
1.333231863E1,-6.295091815E-3,8.782645818E-3,-7.242946029E-3,1.300858623E-2
1.334228063E1,-1.766091874E-2,2.178619562E-2,1.970570147E-2,3.427624601E-2
1.335224362E1,-2.569429869E-3,1.540699298E-2,5.159173787E-2,5.390440444E-2
1.336220563E1,-2.745281453E-3,5.042233128E-2,6.131858110E-2,7.943498254E-2
1.337216863E1,-2.290869429E-3,4.168746818E-2,2.449281693E-2,4.840445400E-2
1.338213062E1,1.168635141E-2,3.431171726E-2,1.191604078E-2,3.815569130E-2
1.339209363E1,2.280634974E-2,1.628464177E-2,2.463724315E-2,3.731370923E-2
1.340205562E1,2.638385443E-2,2.042701034E-2,3.601124704E-2,4.909358858E-2
1.341201763E1,3.624647870E-2,1.077069914E-2,7.208388984E-2,8.139964590E-2
1.342198063E1,4.879362591E-2,-1.436326498E-2,1.116058052E-2,5.207379252E-2
1.343194275E1,3.265332357E-2,-1.731598098E-3,-3.075401545E-2,4.488927977E-2
1.344190575E1,3.623921536E-2,-1.485326165E-2,-3.748357594E-2,5.421179371E-2
1.345186775E1,3.742999854E-2,-2.364133442E-2,1.910168409E-2,4.821609502E-2
1.346183075E1,1.730499461E-3,-1.531829802E-2,3.617204547E-2,3.931999181E-2
1.347179275E1,-6.088729642E-3,-1.559600422E-2,1.491975546E-2,2.242558983E-2
1.348175575E1,-4.702840175E-3,-1.242825687E-3,-2.354556799E-2,2.404277632E-2
1.349171775E1,-2.427812818E-2,4.145036358E-3,-1.560797274E-2,2.915849186E-2
1.350168075E1,-1.205560536E-2,1.296313092E-2,2.975238740E-2,3.462058550E-2
1.351164275E1,-8.486234240E-3,2.223840466E-2,3.664274633E-2,4.369500740E-2
1.352160575E1,-5.707213667E-4,2.787327502E-2,4.966332614E-2,5.695341207E-2
1.353156775E1,5.074218311E-4,2.647730710E-2,6.396853924E-3,2.724380679E-2
1.354153075E1,1.030106951E-3,2.249242963E-2,-1.388128996E-3,2.255875469E-2
1.355149275E1,1.520627131E-2,9.385694750E-3,3.214039028E-2,3.677399408E-2
1.356145575E1,1.715243025E-2,4.544255007E-3,4.022065759E-2,4.396086229E-2
1.357141775E1,3.392151155E-2,1.303660484E-2,2.405135214E-2,4.357854462E-2
1.358138075E1,4.125723645E-2,-3.868042789E-3,-5.022758245E-4,4.144120649E-2
1.359134275E1,3.605913025E-2,-1.642439023E-2,-1.202889204E-2,4.140912596E-2
1.360130575E1,3.468984939E-2,-3.519329466E-3,-6.636589766E-3,3.549388193E-2
1.361126775E1,2.331116316E-2,1.202827077E-3,9.531546235E-3,2.521324046E-2
1.362122975E1,1.062436800E-2,-1.577381440E-2,1.941217124E-2,2.717577613E-2
1.363119275E1,-3.096965208E-3,-9.720996022E-3,1.282820642E-2,1.639060210E-2
1.364115475E1,-1.629115365E-3,-8.486338165E-3,1.088576138E-2,1.389862415E-2
1.365111775E1,1.316164846E-3,-2.166247219E-3,-1.321061432E-2,1.345158904E-2
1.366107975E1,-1.674553713E-2,-3.874693997E-3,-1.156228423E-2,2.071503521E-2
1.367104275E1,-1.606518846E-2,5.538354758E-3,1.747791231E-2,2.437706037E-2
1.368100475E1,-1.829036922E-2,2.626956649E-2,5.250741184E-2,6.149517077E-2
1.369096775E1,-1.634580913E-2,1.254255166E-2,5.100935519E-2,5.501322927E-2
1.370092975E1,-5.305414021E-3,1.474452171E-2,2.900218964E-2,3.296475910E-2
1.371089275E1,-4.688605859E-3,3.027076134E-2,-9.384781122E-4,3.064608880E-2
1.372085475E1,2.494706792E-2,1.554853214E-2,2.091782928E-2,3.607864509E-2
1.373081775E1,2.599255465E-2,1.834664410E-2,4.127257168E-2,5.211177813E-2
1.374077975E1,2.223908303E-2,-2.960152924E-4,2.554940879E-2,3.387383546E-2
1.375074275E1,3.297534298E-2,-4.471128266E-3,1.267559409E-2,3.560947793E-2
1.376070475E1,3.024921573E-2,1.778522003E-3,-2.220070839E-2,3.756394076E-2
1.377066775E1,2.828353029E-2,1.441484839E-3,-2.141835093E-3,2.840111656E-2
1.378062975E1,2.038889380E-2,-3.930187728E-3,8.190194964E-3,2.232112586E-2
1.379059275E1,5.693299121E-3,-6.410156339E-3,2.825082242E-2,2.952308803E-2
1.380055475E1,-4.672438080E-3,3.649959918E-3,1.657451749E-2,1.760308254E-2
1.381051675E1,-8.909455023E-4,-5.202560127E-4,1.908531189E-3,2.169548687E-3
1.382047975E1,-1.757332014E-2,6.100893449E-3,1.013907194E-3,1.862982795E-2
1.383044175E1,-2.040303675E-3,8.885520268E-3,5.665951967E-4,9.134349437E-3
1.384040475E1,-2.592130085E-3,6.126292292E-3,2.766200781E-2,2.845061109E-2
1.385036675E1,-7.403024978E-3,6.182462107E-3,4.562757790E-2,4.663586047E-2
1.386032975E1,-7.324208622E-3,9.903027155E-3,3.266254663E-3,1.274293523E-2
1.387029175E1,-5.019257910E-3,2.673621085E-3,-1.723993063E-2,1.815368855E-2
1.388025475E1,9.740331805E-3,2.468215708E-2,3.395770490E-2,4.309534388E-2
1.389021675E1,7.370049879E-3,1.732239464E-2,4.338867903E-2,4.729651635E-2
1.390017975E1,2.963584966E-2,1.756127167E-2,3.440443218E-2,4.868620750E-2
1.391014175E1,1.392901443E-2,2.496898128E-2,5.176656961E-2,5.913751093E-2
1.392010475E1,1.659277748E-2,1.639648804E-2,2.826251686E-2,3.664607678E-2
1.393006675E1,5.596612212E-3,6.790042631E-3,-2.607741237E-2,2.752195820E-2
1.394002975E1,1.361339726E-2,-1.084494051E-3,-1.096060574E-2,1.751101341E-2
1.394999175E1,1.751412393E-2,-9.360770993E-3,1.523199677E-2,2.502763066E-2
1.395995475E1,1.245823413E-2,-2.991832042E-2,5.879258394E-2,6.713331082E-2
1.396991675E1,-3.756346124E-3,-8.657606766E-3,2.510852873E-2,2.682354388E-2
1.397987975E1,-1.428250945E-3,-1.317352105E-2,-6.373465061E-4,1.326603815E-2
1.398984175E1,-2.603866086E-2,2.037595684E-2,-3.146971464E-2,4.564574916E-2
1.399980475E1,-1.915097429E-2,7.771680504E-3,2.365198731E-3,2.080271615E-2
1.400976675E1,-3.878901252E-3,8.280022815E-4,3.268593550E-3,5.139568707E-3
1.401972875E1,-1.479091229E-2,-1.144373193E-2,3.859922469E-2,4.289091085E-2
1.402969175E1,6.530147600E-3,-2.436997058E-2,-5.557193756E-3,2.583448657E-2
1.403965375E1,1.272830354E-2,-2.152835168E-3,3.516047716E-2,3.745535428E-2
1.404961675E1,2.489138918E-2,1.668634549E-2,3.426292956E-2,4.551882823E-2
1.405957875E1,3.181930048E-2,7.961824648E-3,-7.049987912E-3,3.354937949E-2
1.406954175E1,4.043674875E-2,3.900659289E-2,2.573418081E-2,6.179719250E-2
1.407950375E1,4.403306047E-2,3.733989889E-2,2.513601065E-2,6.296822607E-2
1.408946675E1,4.671945406E-2,3.786284097E-2,8.351227283E-2,1.029106497E-1
1.409942875E1,4.696504169E-2,5.296903124E-2,4.099307477E-2,8.180382381E-2
1.410939175E1,3.040563788E-2,2.683453543E-2,3.290403664E-2,5.222327770E-2
1.411935375E1,2.950615567E-2,1.959915424E-2,-4.568838894E-2,5.781149500E-2
1.412931675E1,1.578260463E-2,-1.156822281E-2,3.110718727E-3,1.981390822E-2
1.413927875E1,-2.455189893E-3,-2.647935363E-2,2.481441379E-2,3.637223195E-2
1.414924175E1,-1.142282129E-2,-3.050209181E-2,2.556285739E-2,4.140432500E-2
1.415920375E1,-2.867602235E-2,-3.138856625E-2,-7.813634276E-3,4.322741295E-2
1.416916675E1,-4.570631431E-2,-2.534943402E-2,-3.146152854E-2,6.100400603E-2
1.417912875E1,-3.599242631E-2,-2.583875461E-2,-3.130248427E-2,5.424888490E-2
1.418909175E1,-5.450319445E-2,1.685533002E-3,2.663231313E-2,6.068541282E-2
1.419905375E1,-1.649037012E-2,-2.908441611E-3,3.741691768E-2,4.099289046E-2
1.420901675E1,2.458976193E-2,1.805326005E-2,4.639824092E-2,5.552813117E-2
1.421897875E1,3.212666531E-2,1.576941071E-2,1.660726190E-2,3.945374616E-2
1.422894075E1,4.215110670E-2,5.408802386E-3,4.782437682E-3,4.276496989E-2
1.423890375E1,5.938404808E-2,2.865185006E-2,8.822863698E-3,6.652245186E-2
1.424886575E1,8.032327451E-2,2.524732701E-2,3.801450312E-2,9.238159122E-2
1.425882875E1,6.344860299E-2,2.875472451E-2,6.780080438E-2,9.720858232E-2
1.426879075E1,4.010831339E-2,3.571969025E-2,3.995636344E-2,6.694089971E-2
1.427875375E1,1.772526095E-2,2.853766490E-2,2.528277576E-2,4.204523687E-2
1.428871575E1,2.286249900E-3,2.401162762E-2,1.584946275E-2,2.886157773E-2
1.429867875E1,-9.681719178E-3,-1.510397930E-2,1.839183211E-2,2.569290496E-2
1.430864075E1,-2.530412038E-2,-1.372175233E-2,2.497345805E-2,3.810851089E-2
1.431860375E1,-2.924417072E-2,-4.545340396E-2,8.956764936E-3,5.478555550E-2
1.432856575E1,-3.506332202E-2,-2.799655991E-2,1.025601625E-3,4.488090659E-2
1.433852875E1,-2.105818529E-2,-2.476933541E-2,-2.561665177E-2,4.139057855E-2
1.434849075E1,-2.302627357E-2,-2.645706112E-2,-2.142010510E-2,4.109752133E-2
1.435845375E1,-1.670046788E-2,-1.237495584E-2,6.579871774E-3,2.180229053E-2
1.436841575E1,-1.090461180E-2,-4.613032881E-3,4.595268309E-2,4.745355323E-2
1.437837875E1,-7.982278483E-3,1.054837704E-2,5.822540402E-2,5.970915090E-2
1.438834075E1,1.215948138E-2,3.192751508E-2,3.277890623E-2,4.734633988E-2
1.439830375E1,3.384737068E-2,3.449849926E-2,2.573885858E-2,5.475655024E-2
1.440826575E1,4.143362136E-2,3.293647042E-2,2.349060416E-2,5.790824247E-2
1.441822775E1,6.040028959E-2,1.140221670E-2,3.620946765E-2,7.133954777E-2
1.442819037E1,6.241793074E-2,1.082794704E-2,5.192210555E-2,8.190938627E-2
1.443815238E1,3.930636776E-2,2.840887997E-3,3.350337625E-2,5.172559725E-2
1.444811538E1,2.256564545E-2,7.422857545E-3,8.353332281E-3,2.518105099E-2
1.445807737E1,9.264068096E-3,1.770686734E-2,-2.982021511E-2,3.589709372E-2
1.446804038E1,-1.237766247E-2,8.628352415E-3,3.712397218E-3,1.553823950E-2
1.447800237E1,-1.418500028E-2,-1.463082992E-3,5.191450417E-2,5.383744596E-2
1.448796538E1,-2.410800847E-2,8.024864942E-3,3.305255592E-2,4.169011852E-2
1.449792738E1,-4.527121295E-2,-4.667009991E-3,-4.823368192E-3,4.576601998E-2
1.450789037E1,-3.430922763E-2,-1.033107989E-2,-4.987967312E-2,6.141527581E-2
1.451785238E1,-1.361263552E-2,-4.955277722E-3,-5.421538353E-3,1.546776329E-2
1.452781538E1,-1.053906489E-2,-1.612196127E-2,9.699361324E-3,2.156541523E-2
1.453777737E1,9.754551274E-3,-3.151267340E-2,2.092952371E-2,3.906718339E-2
1.454774038E1,2.249505403E-2,-1.085446050E-2,7.611320615E-3,2.611089753E-2
1.455770237E1,2.965635146E-2,1.124810603E-2,-4.508203268E-3,3.203658795E-2
1.456766538E1,3.350735052E-2,1.641914601E-2,2.832391262E-3,3.742129521E-2
1.457762738E1,3.291391752E-2,2.502498664E-2,4.025574088E-2,5.770702381E-2
1.458759037E1,4.328902511E-2,2.183606140E-2,5.986613274E-2,7.703705032E-2
1.459755238E1,4.151313436E-2,2.622655291E-2,4.414764762E-2,6.603171353E-2
1.460751538E1,2.218099688E-2,1.262048408E-2,4.159826159E-2,4.880254715E-2
1.461747737E1,2.009896784E-2,2.694227038E-2,4.308813214E-2,5.464834465E-2
1.462743938E1,-3.412245477E-3,1.848726964E-2,2.961030006E-2,3.507409910E-2
1.463740237E1,-2.056349257E-3,1.536653755E-2,-9.013482928E-3,1.793326304E-2
1.464736438E1,-2.803778506E-2,5.995643567E-3,1.104305148E-2,3.072481276E-2
1.465732738E1,-3.362697633E-2,-3.200418670E-3,5.130697846E-2,6.142818780E-2
1.466728937E1,-2.150761005E-2,-2.942629550E-3,5.130463958E-2,5.570818971E-2
1.467725238E1,-1.338975154E-2,8.852264229E-3,-1.440753937E-2,2.156908016E-2
1.468721438E1,-1.807049107E-2,4.609433189E-4,-3.805777252E-2,4.213251909E-2
1.469717737E1,-2.388247268E-3,-2.319254234E-2,-3.955056667E-2,4.591127388E-2
1.470713938E1,1.607494143E-2,-1.025031522E-2,6.059352636E-2,6.352202879E-2
1.471710237E1,2.519994401E-2,-9.973084107E-3,2.706383765E-2,3.830079494E-2
1.472706438E1,2.730568854E-2,-1.207084581E-2,3.978679419E-2,4.974228520E-2
1.473702738E1,3.567602571E-2,-2.454131227E-3,3.259998143E-2,4.838967203E-2
1.474698937E1,3.686604145E-2,4.238061905E-3,-4.808106959E-2,6.073594844E-2
1.475695238E1,4.373515853E-2,2.401884528E-2,-1.224991679E-3,4.991161814E-2
1.476691438E1,1.070799689E-2,2.387737921E-2,1.239609718E-2,2.895606431E-2
1.477687737E1,9.307716647E-3,2.649727900E-2,6.792827368E-2,7.350503213E-2
1.478683938E1,-3.553346100E-3,3.315574100E-2,3.783908665E-2,5.043536367E-2
1.479680237E1,-1.176017365E-2,2.226201279E-2,5.660104752E-4,2.518371032E-2
1.480676438E1,-2.487471777E-2,1.684073025E-2,3.738592744E-2,4.795903825E-2
1.481672738E1,-1.856642403E-2,1.014674641E-4,9.710704923E-2,9.886607814E-2
1.482668937E1,-2.052128527E-2,1.144153923E-2,-3.866295934E-2,4.524219705E-2
1.483665138E1,-2.018232035E-2,-1.324175075E-2,-1.770712316E-2,2.993680391E-2
1.484661438E1,-9.503993515E-3,-1.002035519E-2,-1.965073764E-2,2.401842836E-2
1.485657637E1,7.558300530E-3,-3.532600818E-2,3.319347382E-2,4.905977441E-2
1.486653938E1,1.886017125E-2,-2.087819612E-2,1.747849703E-2,3.312254505E-2
1.487650137E1,2.300299206E-2,-1.588005099E-2,-1.724694729E-2,3.284464727E-2
1.488646438E1,2.949575174E-2,-1.545777239E-2,-5.870019794E-3,3.381418682E-2
1.489642638E1,3.067224351E-2,1.503392234E-3,8.683115244E-4,3.072133908E-2
1.490638937E1,3.220098205E-2,6.139649525E-3,1.075186014E-2,3.449929039E-2
1.491635138E1,1.987989825E-2,3.195722625E-3,2.048396587E-2,2.872308924E-2
1.492631438E1,2.249985057E-2,3.329897951E-3,3.320809186E-2,4.025057591E-2
1.493627637E1,1.755177223E-2,2.556441056E-2,3.634921610E-2,4.777938161E-2
1.494623938E1,-9.856665130E-3,4.642780591E-2,4.218590677E-2,6.350075384E-2
1.495620137E1,-1.500114596E-3,2.448342483E-2,3.874131203E-2,4.585387326E-2
1.496616438E1,-2.949529036E-2,2.575740522E-2,2.990792334E-2,4.927372480E-2
1.497612638E1,-3.784936039E-2,2.207899494E-2,1.942795873E-2,4.793226137E-2
1.498608937E1,-2.741853066E-2,9.467427861E-3,-9.913369417E-3,3.065424778E-2
1.499605138E1,-1.334799191E-2,5.466269553E-3,2.930390596E-2,3.266141295E-2
1.500601438E1,-1.133614088E-2,1.748774294E-3,2.974887908E-2,3.188357113E-2
1.501597637E1,2.764981545E-3,-1.548742874E-2,1.672245204E-2,2.295965971E-2
1.502593938E1,1.357087818E-2,-9.767755475E-3,-2.309591711E-2,2.851314028E-2
1.503590137E1,2.888078682E-2,-1.514679188E-2,-9.470150471E-3,3.395892963E-2
1.504586338E1,2.902218437E-2,-1.583906567E-2,4.004173279E-3,3.330460314E-2
1.505582638E1,3.879204576E-2,-1.350789042E-2,3.813846409E-2,5.605201478E-2
1.506578837E1,3.774523199E-2,-2.279537022E-3,1.838306129E-2,4.204563912E-2
1.507575138E1,3.624469027E-2,1.537127014E-2,2.497345805E-2,4.662217418E-2
1.508571338E1,1.162332825E-3,3.243790392E-2,7.310189009E-3,3.327172210E-2
1.509567637E1,-4.418569563E-3,3.906755012E-2,3.440209329E-2,5.224271482E-2
1.510563838E1,-5.710877313E-3,2.799813135E-2,1.479287088E-2,3.217667645E-2
1.511560138E1,-3.405393271E-3,2.310945706E-2,2.856306374E-2,3.689840538E-2
1.512556338E1,-2.747031050E-3,1.632427493E-2,3.020730078E-2,3.444574215E-2
1.513552638E1,-1.351451879E-2,7.755344845E-3,4.846640110E-2,5.090952394E-2
1.514548837E1,-3.480099445E-2,1.559097927E-2,2.795787692E-2,4.728457181E-2
1.515545138E1,-2.004341244E-2,-3.277455736E-3,-6.919010282E-3,2.145583374E-2
1.516541338E1,7.003084563E-3,-1.039031949E-2,-1.229084730E-3,1.259017799E-2
1.517537637E1,-7.718806600E-3,-1.130504329E-3,8.259718359E-2,8.296476813E-2
1.518533838E1,-4.863940103E-3,-1.551279103E-2,3.319639742E-2,3.696356856E-2
1.519530138E1,1.305392265E-2,6.375657767E-3,4.005927444E-3,1.506988265E-2
1.520526338E1,1.412353599E-2,8.969190270E-3,-3.970434844E-2,4.308544915E-2
1.521522638E1,3.293669197E-2,7.619433627E-3,-2.772574246E-2,4.372182798E-2
1.522518837E1,2.840480976E-2,5.381210838E-3,1.688558936E-2,3.348005042E-2
1.523515138E1,3.068690037E-2,-9.476692043E-3,4.562640846E-2,5.579661903E-2
1.524511338E1,2.850910490E-2,-2.497382350E-3,7.004379630E-3,2.946298211E-2
1.525507637E1,3.250612905E-2,-3.284673393E-4,-1.874032617E-2,3.752274165E-2
1.526503838E1,7.663130143E-3,7.199530452E-3,-2.487814844E-2,2.700887025E-2
1.527500037E1,-9.663090315E-3,1.626466988E-2,-2.130140662E-3,1.903818006E-2
1.528496338E1,-7.093028901E-3,3.323593922E-3,1.046096116E-1,1.049024699E-1
1.529492538E1,-4.934763588E-2,6.798466276E-3,4.802727520E-2,6.919557410E-2
1.530488837E1,-1.453488533E-2,1.001165746E-2,4.607898295E-2,4.934337692E-2
1.531485038E1,-1.994185361E-2,-6.086988039E-3,-1.993549705E-2,2.884706209E-2