"Time (s)","Linear Acceleration x (m/s^2)","Linear Acceleration y (m/s^2)","Linear Acceleration z (m/s^2)","Absolute acceleration (m/s^2)"
2.754500019E-3,-9.088569400E-3,2.072722832E-2,-8.648031950E-4,2.264879626E-2
1.271649997E-2,4.794821902E-3,1.346597319E-2,2.859873176E-3,1.457743550E-2
2.267850004E-2,6.178241149E-2,1.503569478E-2,1.227739871E-1,1.382627585E-1
3.264049999E-2,-3.841713874E-2,4.946430154E-2,-1.827564794E-1,1.931903839E-1
4.260250006E-2,5.311568672E-2,-9.771811981E-3,1.262127346E-1,1.372822598E-1
5.256450002E-2,-2.957109859E-2,3.711172957E-2,-3.695089459E-2,6.014232249E-2
6.252649997E-2,1.067493956E-2,-2.467543278E-3,1.658779067E-1,1.662393546E-1
7.248850004E-2,-3.297997050E-2,1.311981803E-2,-3.470907211E-2,4.964401038E-2
8.245083329E-2,-4.701325838E-3,2.447260749E-3,-6.150920033E-2,6.173713045E-2
9.241383336E-2,-3.113475598E-3,-4.324564151E-3,1.513259411E-3,5.539452991E-3
1.023758333E-1,-5.402528050E-3,-8.848938625E-3,9.595280886E-3,1.412658626E-2
1.123378334E-1,1.555476993E-2,-2.338802207E-2,8.249661148E-2,8.714723948E-2
1.222998333E-1,-3.428021539E-3,-1.068465371E-2,-6.210912466E-2,6.311463002E-2
1.322618333E-1,3.288064549E-2,-6.882465184E-3,4.102815807E-2,5.302654929E-2
1.422238334E-1,-8.207252389E-4,2.870617434E-3,-4.100126088E-2,4.110982155E-2
1.521858333E-1,2.322955111E-2,1.188168839E-2,5.839497328E-2,6.395904524E-2
1.621478334E-1,5.164948369E-3,7.423423994E-3,9.745554328E-3,1.329510228E-2
1.721098333E-1,1.986562510E-2,4.861046188E-4,4.746828139E-2,5.145985908E-2
1.820718333E-1,1.343566817E-2,-2.757053543E-3,2.306785047E-2,2.683736665E-2
1.920338334E-1,9.534150073E-3,1.829696104E-2,2.051671028E-2,2.909663557E-2
2.019958333E-1,9.726110052E-3,9.497979563E-3,5.696357489E-3,1.473965132E-2
2.119578334E-1,-5.206034195E-3,-1.115575656E-3,1.348017097E-2,1.449352650E-2
2.219198333E-1,-5.522144723E-3,-6.352670901E-3,1.856900275E-2,2.038770151E-2
2.318818333E-1,-4.246017316E-3,-1.874178797E-3,3.218775272E-2,3.252064936E-2
2.418438334E-1,-8.902611954E-3,3.366333414E-3,2.889460087E-2,3.042181223E-2
2.518058333E-1,-2.043896515E-2,1.122623378E-2,4.191518068E-2,4.796521649E-2
2.617678334E-1,-5.602822595E-3,7.064898312E-3,-1.017707884E-2,1.359696080E-2
2.717298333E-1,-7.350137369E-3,7.526700441E-3,7.635294199E-3,1.299897905E-2
2.816918334E-1,1.428835667E-2,5.017459206E-4,4.071650147E-2,4.315370642E-2
2.916538334E-1,1.487805522E-2,1.012198711E-2,3.637435913E-2,4.058207920E-2
3.016158333E-1,3.380246818E-2,9.219999276E-3,7.449352741E-4,3.504525888E-2
3.115778334E-1,4.482341673E-2,-6.315796897E-3,-2.215860844E-2,5.039872920E-2
3.215398333E-1,3.544777416E-2,-3.769626841E-3,-2.155634522E-2,4.165850212E-2
3.315018334E-1,2.092423380E-2,4.632694144E-3,4.251393557E-2,4.761008436E-2
3.414638333E-1,2.358447938E-2,1.502750868E-2,5.538950443E-2,6.204877828E-2
3.514258333E-1,2.256820818E-2,-1.144848280E-3,6.441877484E-3,2.349749951E-2
3.613878334E-1,5.625766064E-3,1.037129777E-2,-2.858528316E-2,3.092460953E-2
3.713498333E-1,-6.954433902E-3,-3.353579175E-3,-2.034947991E-2,2.176492538E-2
3.813118334E-1,-4.409458414E-3,-1.129243523E-4,5.075383186E-2,5.094514230E-2
3.912738333E-1,-2.132259136E-2,1.112606367E-2,5.524390876E-2,6.025223357E-2
4.012358333E-1,-1.609460955E-2,-1.780933980E-3,2.336138070E-2,2.842467749E-2
4.111978334E-1,-4.365355333E-3,2.900694050E-3,-6.150920033E-2,6.173209926E-2
4.211598333E-1,-2.757032986E-3,7.041143999E-3,-4.144623399E-2,4.213038395E-2
4.311228334E-1,1.084603686E-3,2.336127106E-3,1.768665791E-2,1.787321244E-2
4.410848334E-1,3.196325619E-5,4.386179186E-3,9.193694115E-2,9.204151638E-2
4.510468333E-1,-9.973842418E-4,4.034724981E-3,6.813760400E-2,6.826424291E-2
4.610088334E-1,4.818400342E-3,1.245577533E-2,2.951732934E-2,3.239808717E-2
4.709708333E-1,2.310424025E-2,2.070058694E-2,-1.363377732E-1,1.398224182E-1
4.809328334E-1,2.773184092E-2,8.302808683E-3,6.949064970E-2,7.527909423E-2
4.908948333E-1,-4.069799138E-4,3.546458719E-2,1.688816214E-1,1.725656530E-1
5.008568333E-1,1.476548033E-2,3.251695096E-2,1.873915672E-2,4.033023065E-2
5.108188334E-1,3.919445754E-3,5.254254995E-2,-1.449524760E-2,5.464607775E-2
5.207808333E-1,6.162337179E-3,3.650045799E-2,-8.095996320E-2,8.902119677E-2
5.307428334E-1,1.073554732E-2,3.462203996E-2,1.175284499E-1,1.229913581E-1
5.407048333E-1,1.257261001E-2,1.388072351E-2,4.612225235E-2,4.977958587E-2
5.506668333E-1,6.463041664E-3,-2.359473942E-2,-2.408117294E-2,3.432762045E-2
5.606288334E-1,-1.238321275E-2,-2.040482746E-2,-1.094043285E-1,1.119777122E-1
5.705908333E-1,4.713182438E-3,-4.132616507E-2,-1.239902079E-2,4.340278476E-2
5.805528334E-1,-7.648096404E-3,-1.515609261E-2,3.880329251E-2,4.235440982E-2
5.905148333E-1,-3.213230011E-3,-2.329861449E-2,1.396081209E-2,2.735058607E-2
6.004768333E-1,1.173625260E-3,-1.754394930E-2,1.172542155E-2,2.113416816E-2
6.104388334E-1,-9.899813470E-3,-4.085321669E-3,3.942251265E-2,4.085132389E-2
6.204008333E-1,5.281671127E-3,1.713170232E-2,7.041275561E-2,7.265911799E-2
6.303628334E-1,2.471303083E-2,5.892968288E-2,6.157644331E-2,8.874175899E-2
6.403248333E-1,3.380546488E-2,4.817601375E-2,3.567912519E-2,6.882396190E-2
6.502868333E-1,1.493136538E-2,5.515601780E-2,3.193749189E-3,5.723051639E-2
6.602488334E-1,1.863345231E-2,5.780365532E-2,3.939853907E-3,6.086041869E-2
6.702108333E-1,1.654465329E-2,4.509319721E-2,3.791860878E-2,6.119593842E-2
6.801728334E-1,-1.338352289E-3,2.534406189E-2,6.096657872E-2,6.603814338E-2
6.901348333E-1,-3.998147906E-4,1.396636695E-2,2.698314607E-2,3.038600713E-2
7.000968333E-1,-1.838944298E-2,-2.897441536E-3,2.578622103E-3,1.879404354E-2
7.100588334E-1,-1.765956885E-2,-5.804567523E-3,-2.197266698E-2,2.878109571E-2
7.200208333E-1,-8.798590901E-3,-1.201166103E-2,6.285756826E-4,1.490269472E-2
7.299828334E-1,-9.925810739E-3,-4.199755333E-2,-1.763227880E-2,4.661773762E-2
7.399448333E-1,-6.565584925E-3,-5.006488368E-2,2.130140662E-3,5.053847032E-2
7.499078333E-1,-3.629547197E-3,-2.529737553E-2,9.916293025E-3,2.741283803E-2
7.598698334E-1,-4.506346320E-3,-3.951109797E-2,-1.007475257E-3,3.978000787E-2
7.698318333E-1,1.436332208E-2,-6.385671124E-3,1.022210240E-2,1.875028519E-2
7.797938334E-1,2.454327428E-2,1.674801534E-2,3.522187293E-2,4.608089260E-2
7.897558333E-1,2.862744707E-2,3.854535721E-2,2.354732215E-2,5.347664601E-2
7.997178333E-1,2.078584437E-2,4.387865743E-2,2.789004922E-2,5.599323842E-2
8.096798334E-1,2.343886087E-2,5.744567782E-2,2.474775553E-2,6.679698723E-2
8.196418333E-1,2.333312677E-2,4.414207449E-2,5.154145181E-2,7.175986901E-2
8.296038334E-1,2.116707141E-2,2.617939146E-2,3.866412878E-2,5.126714644E-2
8.395658333E-1,2.579278087E-2,2.274047948E-2,1.875143588E-2,3.916648184E-2
8.495278333E-1,1.294003214E-2,7.923616748E-3,-1.134009004E-2,1.894269717E-2
8.594898334E-1,-3.580574482E-4,-1.249478722E-2,-2.959860563E-3,1.284557073E-2
8.694518333E-1,-4.348083206E-3,-2.059873575E-2,1.679612696E-2,2.693183290E-2
8.794138334E-1,-7.276252317E-3,-2.503810633E-2,1.724343896E-2,3.125998726E-2
8.893758333E-1,-1.745597611E-2,-2.884961385E-2,-4.233442605E-2,5.412222233E-2
8.993378334E-1,-2.519866722E-3,-2.191845233E-2,-2.586632788E-2,3.399757637E-2
9.092998334E-1,-3.418761925E-3,-1.445148485E-2,-2.646098971E-2,3.034332421E-2
9.192618333E-1,-3.304188475E-3,-9.932117052E-3,5.632038116E-2,5.728481426E-2
9.292238334E-1,-9.896848749E-3,-9.880369194E-3,6.709679961E-2,6.853867396E-2
9.391858333E-1,-1.506224480E-3,-4.377627634E-3,1.291006744E-2,1.371503471E-2
9.491478334E-1,1.840294639E-3,2.845898330E-2,-5.818915129E-2,6.480183441E-2
9.591098333E-1,1.347127223E-2,3.544773990E-2,-6.994439363E-3,3.856085608E-2
9.690718333E-1,8.351029940E-3,4.077926768E-2,9.584346592E-2,1.044923841E-1
9.790338334E-1,2.599279905E-2,2.829807524E-2,8.027350008E-2,8.899573855E-2
9.889958333E-1,1.210552939E-2,3.069187051E-2,1.680138946E-2,3.702460594E-2
9.989578334E-1,1.535656074E-2,3.963697756E-2,9.912784696E-3,4.364833614E-2
1.008919833E0,1.524020572E-2,2.010254469E-2,1.678735614E-3,2.528229275E-2
1.018881833E0,1.522850672E-2,3.181689307E-3,1.978697777E-2,2.517051952E-2
1.028843833E0,9.572545267E-3,-1.310598571E-2,3.549961567E-2,3.903361624E-2
1.038805833E0,6.441674202E-3,-7.907207999E-3,3.310167253E-2,3.463726071E-2
1.048767833E0,-8.817091857E-3,-2.077320205E-2,2.127217054E-2,3.101245350E-2
1.058729833E0,-3.606962326E-3,-1.394911766E-2,4.953761101E-3,1.523574120E-2
1.068691833E0,-1.914106144E-2,-3.882843554E-3,-6.123788953E-3,2.046845129E-2
1.078654833E0,-8.111611584E-3,9.215504229E-3,-3.216787219E-2,3.443102906E-2
1.088616250E0,-5.787350214E-3,-1.115769345E-2,-2.973893881E-3,1.291633038E-2
1.098578250E0,3.844813812E-3,-4.156767335E-3,1.558867693E-2,1.658517882E-2
1.108540250E0,7.905663969E-4,1.830726676E-4,5.166307390E-2,5.166944663E-2
1.118502250E0,-3.611854801E-3,-1.542769577E-3,2.713692784E-3,4.773862336E-3
1.128464250E0,1.125067560E-2,1.290184479E-2,-1.734284163E-2,2.436820585E-2
1.138426250E0,1.131393517E-2,1.796144050E-2,1.259958029E-2,2.468537820E-2
1.148388250E0,7.843688051E-3,3.179767035E-2,4.747880638E-2,5.767887253E-2
1.158350250E0,3.995425296E-3,3.414857995E-2,6.604137719E-2,7.445503634E-2
1.168312250E0,3.427861654E-4,2.794166917E-2,4.463413596E-2,5.265985636E-2
1.178274250E0,1.205082367E-2,3.190567939E-2,3.669829488E-2,5.009949675E-2
1.188236250E0,-1.143450430E-3,3.192236222E-2,1.962968767E-2,3.749225689E-2
1.198198250E0,4.093674507E-3,3.210929040E-2,2.501321912E-2,4.090752781E-2
1.208160250E0,-9.639799667E-3,3.365620784E-2,2.725328743E-2,4.436674137E-2
1.218122250E0,-4.762637091E-3,5.321879871E-4,3.398284793E-2,3.431908929E-2
1.228084250E0,1.585131056E-2,1.643268596E-3,2.858879149E-2,3.273046558E-2
1.238046250E0,1.291540531E-2,-8.797391765E-3,-3.598961234E-3,1.603603187E-2
1.248008250E0,5.474126749E-3,-1.568122739E-2,-4.282149911E-2,4.592981322E-2
1.257970250E0,1.238206158E-2,-2.583044060E-2,-2.605694711E-2,3.872326953E-2
1.267932250E0,1.480912203E-2,-3.893359406E-2,4.331617355E-3,4.187956244E-2
1.277894250E0,2.173030674E-2,-2.934949597E-2,3.736955523E-3,3.670918116E-2
1.287856250E0,8.650459915E-3,-2.344455734E-2,2.215100706E-2,3.339378444E-2
1.297818250E0,1.601335838E-2,-1.546131726E-3,1.092669189E-2,1.944764164E-2
1.307780250E0,1.128146256E-2,9.808722530E-3,-9.875362515E-3,1.791661854E-2
1.317742250E0,2.536839636E-3,1.737184016E-2,-1.271418571E-2,2.167641355E-2
1.327704250E0,1.940416787E-3,1.766716110E-2,5.106958151E-3,1.849256121E-2
1.337666250E0,-6.803715066E-3,1.576966653E-2,4.372898698E-2,4.698081761E-2
1.347628250E0,-8.742548993E-3,2.596035842E-2,6.812766373E-2,7.342854307E-2
1.357590250E0,-7.735790934E-3,1.603984443E-2,5.465333998E-2,5.748135908E-2
1.367552250E0,-8.546902528E-3,2.329923576E-2,1.034313977E-2,2.688651093E-2
1.377514250E0,-7.719039575E-3,2.959749101E-2,-9.868930578E-3,3.214017481E-2
1.387477250E0,-7.746455250E-3,3.445756875E-2,5.030418098E-2,6.146415408E-2
1.397439250E0,-2.633147389E-3,1.915966289E-2,4.266713262E-2,4.684560121E-2
1.407401250E0,1.029069298E-2,1.253794698E-2,7.034785151E-3,1.768012100E-2
1.417363250E0,4.891547640E-3,7.977210134E-3,-1.653007865E-3,9.502397321E-3
1.427325250E0,1.581510122E-2,-9.760007914E-3,-2.365958869E-2,3.008573280E-2
1.437287250E0,3.453982263E-3,-1.257356018E-2,1.121729851E-2,1.720035450E-2
1.447249250E0,1.677091084E-2,-2.916582031E-2,5.228580236E-3,3.404771029E-2
1.457211250E0,1.383070698E-2,-2.968932884E-2,1.765449822E-2,3.720787564E-2
1.467173250E0,1.152519324E-2,-1.661217721E-2,-1.503319144E-3,2.027447852E-2
1.477135250E0,2.693401119E-3,-1.142428994E-2,-1.508581638E-4,1.173846534E-2
1.487097250E0,-1.089151495E-2,1.095810240E-2,2.260767460E-2,2.738269630E-2
1.497059250E0,-3.666375519E-3,2.355808469E-2,4.611172736E-2,5.191066425E-2
1.507021250E0,-1.147800895E-2,3.430963419E-2,5.105613291E-2,6.257495023E-2
1.516983250E0,-2.069219984E-3,4.240033513E-2,3.713508189E-2,5.640110280E-2
1.526945250E0,-3.834574332E-3,3.708779253E-2,2.515823007E-2,4.497938256E-2
1.536907250E0,-1.034743610E-2,4.076452173E-2,4.027445197E-2,5.823098099E-2
1.546869250E0,-1.101797012E-2,3.770010564E-2,2.380635381E-2,4.592859799E-2
1.556831250E0,-7.991816753E-3,2.118358523E-2,3.787416995E-2,4.412557271E-2
1.566793250E0,6.993409249E-3,-1.097778194E-3,1.062614501E-2,1.276823588E-2
1.576755250E0,1.649727257E-2,3.905702513E-3,1.361816525E-2,2.174554987E-2
1.586717250E0,2.010354968E-2,-1.996339923E-2,5.083569288E-3,2.878424387E-2
1.596679250E0,3.099817096E-2,-6.814125851E-3,1.122197628E-2,3.366380349E-2
1.606641250E0,8.876667218E-3,-1.515664078E-2,1.002329707E-2,2.022338906E-2
1.616603250E0,1.846833242E-2,-1.317785164E-2,1.047119379E-2,2.498761645E-2
1.626565250E0,8.126444325E-3,-1.390462400E-2,1.189908385E-3,1.614910363E-2
1.636527250E0,5.100302375E-4,-2.534950711E-3,-9.051489830E-4,2.739598626E-3
1.646489250E0,1.726942709E-2,5.492965747E-3,1.286738276E-2,2.222555565E-2
1.656451250E0,1.485798968E-2,9.546712451E-3,1.990275264E-2,2.660862902E-2
1.666413250E0,-9.356339900E-3,1.240711553E-2,1.690839350E-2,2.296456799E-2
1.676375250E0,-7.969549368E-3,2.214804690E-2,1.885785520E-2,3.016070957E-2
1.686337250E0,-9.830807189E-3,1.854144774E-2,2.499509275E-2,3.263716771E-2
1.696300250E0,-1.310662525E-2,2.160657646E-2,4.879384518E-2,5.494967788E-2
1.706261250E0,-9.641647479E-3,2.899886403E-2,2.199781001E-2,3.765367348E-2
1.716224250E0,-1.056162464E-3,3.007614043E-2,1.361465693E-2,3.303102459E-2
1.726186250E0,-2.722623493E-3,1.999194095E-2,-7.344687581E-3,2.147172134E-2
1.736148250E0,7.900645870E-3,7.991316542E-3,1.975014031E-2,2.272332254E-2
1.746110250E0,1.151680157E-2,-1.127359623E-2,4.459671378E-2,4.741937969E-2
1.756072250E0,1.705809136E-2,-1.979390306E-2,4.878390491E-2,5.534118229E-2
1.766034250E0,1.459095008E-2,-8.634619899E-3,-2.261703014E-3,1.710461299E-2
1.775996250E0,1.389645846E-2,5.311044250E-3,5.222148299E-3,1.576672387E-2
1.785958250E0,2.506122110E-2,-1.811778042E-3,-1.683998108E-4,2.512719048E-2
1.795920250E0,2.520903232E-2,6.324001271E-3,1.869120955E-2,3.201327252E-2
1.805882250E0,1.042358238E-2,1.121024530E-2,2.213521957E-2,2.691261071E-2
1.815844250E0,1.430158142E-3,2.466408553E-2,-1.408886611E-2,2.844043979E-2
1.825806250E0,-5.876897124E-3,1.628113344E-2,-1.678150892E-4,1.731015274E-2
1.835768250E0,7.313361580E-3,1.032746192E-2,1.435491443E-2,1.913649120E-2
1.845730250E0,-8.970971843E-3,1.369547641E-2,5.701853871E-2,5.932249293E-2
1.855692250E0,-5.553116694E-3,1.594864614E-2,2.677732408E-2,3.165788217E-2
1.865654250E0,-1.451495455E-2,2.200276187E-2,1.719490707E-2,3.147173755E-2
1.875616250E0,-9.114763099E-3,1.277086716E-3,1.255280256E-2,1.556543315E-2
1.885578250E0,-1.058605960E-2,9.730625656E-3,2.362801373E-2,2.765922570E-2
1.895540250E0,-9.418167353E-3,7.944082003E-3,1.674233258E-2,2.078740040E-2
1.905502250E0,5.340814800E-4,1.575976280E-2,4.218824565E-2,4.503891027E-2
1.915464250E0,8.285114004E-3,-4.122469760E-4,3.410154641E-2,3.509599021E-2
1.925426250E0,1.216909731E-2,6.035039183E-3,-1.245164573E-2,1.842693975E-2
1.935388250E0,1.682726110E-2,7.990768366E-3,-4.194090843E-2,4.589170835E-2
1.945350250E0,1.297422236E-2,1.029340189E-2,-1.050393820E-2,1.961166199E-2
1.955312250E0,2.263257780E-2,-1.619549001E-2,4.668066144E-2,5.434714001E-2
1.965274250E0,2.041641911E-2,-1.009551018E-2,5.311844587E-2,5.779549106E-2
1.975236250E0,1.503186897E-2,-1.051857451E-2,2.617389143E-2,3.196357437E-2
1.985198250E0,3.509322961E-3,-2.320193443E-3,-1.244521379E-2,1.313704653E-2
1.995160250E0,-3.617898447E-3,2.649263777E-3,-3.055404067E-2,3.088134047E-2
2.005122250E0,-9.075529652E-3,7.251095586E-3,-4.619300365E-4,1.162570450E-2
2.015084250E0,-7.673410736E-3,1.415990978E-2,5.851893425E-2,6.069472747E-2
2.025047250E0,-8.630131704E-3,1.607421510E-2,7.378776848E-2,7.600983056E-2
2.035009250E0,-5.604791462E-3,3.421978807E-2,5.148297966E-2,6.207177118E-2
2.044971250E0,-3.317586822E-3,3.006683970E-2,-6.092798710E-4,3.025545329E-2
2.054933250E0,-1.753488611E-3,3.156093121E-2,-2.231414437E-2,3.869222325E-2
2.064895250E0,-2.477999744E-3,1.926337788E-2,1.316266716E-2,2.346218269E-2
2.074857250E0,-1.171080808E-3,6.356051322E-3,5.133446038E-2,5.173971048E-2
2.084819708E0,1.382863304E-2,5.310185440E-3,5.582102895E-2,5.775306428E-2
2.094781708E0,1.048476573E-3,-6.426217910E-3,1.809713244E-2,1.923283085E-2
2.104743708E0,1.153131226E-2,-8.437166736E-4,-5.405166149E-3,1.276318304E-2
2.114705708E0,6.885909559E-3,-1.031571267E-2,-2.501321912E-2,2.791936262E-2
2.124667708E0,1.167090540E-2,-2.006011583E-2,2.380401492E-3,2.332990765E-2
2.134629708E0,8.202188609E-3,-1.645189041E-2,3.635915637E-2,4.074222439E-2
2.144591708E0,2.145832214E-3,-1.697344378E-2,4.070246816E-2,4.415193431E-2
2.154553708E0,-3.754558840E-3,-2.456360478E-3,-9.069031477E-4,4.577432927E-3
2.164515708E0,-5.319691733E-3,5.086931437E-3,-2.006472051E-2,2.137215480E-2
2.174477708E0,5.206321988E-3,1.446082212E-2,1.811116576E-2,2.375364162E-2
2.184439708E0,-7.111461335E-3,2.001012214E-2,3.981953859E-2,4.512841149E-2
2.194401708E0,-6.043519930E-3,2.330049656E-2,2.679661989E-2,3.602077332E-2
2.204363708E0,-1.965413634E-3,2.509847883E-2,5.179463625E-2,5.758889506E-2
2.214325708E0,-4.793051749E-3,2.484893063E-2,2.859171510E-2,3.818283477E-2
2.224287708E0,-5.958358431E-3,1.309748897E-2,1.107579589E-2,1.815818017E-2
2.234249708E0,6.797548081E-3,8.228896223E-3,-1.931276858E-2,2.206591088E-2
2.244211708E0,4.431127373E-3,-5.818326753E-3,1.451629758E-2,1.625455971E-2
2.254173708E0,2.129174501E-3,-2.092018643E-2,4.759692013E-2,5.203512651E-2
2.264135708E0,2.252084801E-3,-4.514233209E-3,4.783607125E-3,6.952199979E-3
2.274097708E0,1.857596459E-3,-1.227637544E-2,-5.097017884E-3,1.342161130E-2
2.284059708E0,1.479803287E-2,-9.278763793E-3,-2.066464484E-2,2.705743485E-2
2.294021708E0,1.295777250E-2,-9.958849791E-3,-8.837481737E-3,1.857911840E-2
2.303983708E0,5.726731033E-4,-9.658302907E-3,1.885493159E-2,2.119243296E-2
2.313945708E0,1.743923160E-2,-9.781916700E-3,3.547388792E-2,4.072111759E-2
2.323907708E0,2.542505953E-2,-4.044409432E-3,1.212127805E-2,2.845551407E-2
2.333869708E0,1.044778437E-2,2.264400043E-2,1.271886349E-2,2.799422158E-2
2.343832708E0,-4.786060215E-3,2.999808010E-2,3.038154781E-2,4.296311941E-2
2.353794708E0,-7.841241814E-3,4.577516528E-2,4.115796626E-2,6.205504827E-2
2.363756708E0,-1.431402960E-2,4.758593833E-2,3.157730341E-2,5.887647290E-2
2.373718708E0,-1.768320668E-2,4.092786005E-2,2.738368034E-2,5.232257138E-2
2.383680708E0,-3.736354813E-3,2.291090755E-2,5.676476955E-3,2.389754009E-2
2.393642708E0,-7.868218948E-3,2.009516258E-2,3.141825914E-2,3.811602597E-2
2.403604708E0,-2.534085049E-3,8.005678765E-3,4.129303694E-2,4.213819383E-2
2.413566708E0,-2.387993736E-4,-2.044862676E-2,-3.924300313E-2,4.425174185E-2
2.423528708E0,8.765268624E-3,-1.907831350E-2,1.703937113E-2,2.703982524E-2
2.433490708E0,2.164557008E-3,-1.057604168E-2,4.278232276E-2,4.412329437E-2
2.443452708E0,-7.844396112E-3,-3.711684588E-3,-3.321218491E-3,9.292020508E-3
2.453414708E0,2.624360577E-3,-3.442109674E-3,-1.439701438E-2,1.503360936E-2
2.463376708E0,1.747151920E-2,7.985103875E-5,-3.917049766E-3,1.790540807E-2
2.473338708E0,1.332705157E-2,6.958259717E-3,1.075653791E-2,1.848596197E-2
2.483300708E0,2.452080133E-3,-7.887948733E-3,2.812510729E-2,2.931303622E-2
2.493262708E0,2.122366378E-2,-9.074202608E-3,2.513484120E-2,3.412543479E-2
2.503224708E0,5.009599726E-3,2.192705870E-5,2.932729483E-2,2.975208887E-2
2.513186708E0,1.216751445E-2,1.225265767E-2,5.378268957E-3,1.808595601E-2
2.523148708E0,7.260933069E-3,3.198035929E-2,3.217313468E-2,4.594099613E-2
2.533110708E0,-6.415491924E-4,3.043252822E-2,2.828239739E-2,4.155050374E-2
2.543072708E0,-7.104641106E-3,2.785620846E-2,5.328158319E-2,6.054231068E-2
2.553034708E0,-4.201363774E-3,2.984340297E-2,3.426994622E-2,4.563671079E-2
2.562996708E0,-6.967777431E-3,1.971333940E-2,5.678231120E-3,2.166582519E-2
2.572958708E0,-9.639699168E-3,2.430314787E-2,-9.104114771E-4,2.616095651E-2
2.582920708E0,-1.091926181E-2,1.286953893E-2,2.902440906E-2,3.357486607E-2
2.592882708E0,-9.339453781E-3,-7.708841208E-3,2.737607896E-2,2.993495163E-2
2.602844708E0,3.295609513E-3,-1.100210270E-2,1.929288805E-2,2.245267991E-2
2.612806708E0,8.573932196E-3,-2.100385644E-2,1.478760839E-3,2.273457790E-2
2.622768708E0,4.715324894E-3,-1.145602936E-2,1.928879499E-2,2.292449585E-2
2.632730708E0,1.226148560E-2,-8.290492985E-3,1.360003889E-2,2.010068060E-2
2.642692708E0,1.413533321E-2,1.384189434E-2,1.280540228E-4,1.978438985E-2
2.652654708E0,1.077095267E-2,1.189718351E-2,1.000750959E-2,1.891313419E-2
2.662617708E0,2.440628042E-2,1.917987233E-2,6.865215898E-3,3.179096123E-2
2.672579708E0,1.374393749E-2,1.618317431E-2,-2.202061415E-2,3.058918757E-2
2.682541708E0,1.092185880E-2,-5.824557692E-4,3.430561423E-3,1.146276607E-2
2.692503708E0,1.033154812E-2,-1.132349856E-4,6.106422722E-2,6.193216898E-2
2.702465708E0,1.069987474E-2,-1.120490972E-3,4.280512691E-2,4.413639891E-2
2.712427708E0,6.229783441E-3,1.361878652E-2,1.182190061E-2,1.907980299E-2
2.722389708E0,-7.263589441E-3,1.321339175E-2,-2.964538336E-4,1.508115838E-2
2.732351708E0,-2.631251612E-3,1.211272649E-2,2.365549564E-2,2.670625586E-2
2.742313708E0,-5.840648955E-3,1.166325834E-2,6.930997074E-2,7.052670997E-2
2.752275708E0,-1.057242828E-2,1.888586702E-2,5.568361938E-2,5.974209303E-2
2.762237708E0,-5.729503892E-3,2.181409780E-2,1.795562983E-2,2.882857471E-2
2.772199708E0,-5.432186681E-3,2.191441409E-2,-2.254686356E-3,2.268994949E-2
2.782161708E0,-3.721044702E-3,2.750577752E-2,-1.807374358E-3,2.781511410E-2
2.792123708E0,3.220057092E-3,1.372937199E-2,3.277130485E-2,3.567664284E-2
2.802085708E0,1.030310690E-2,-2.872243691E-3,1.615585685E-2,1.937564208E-2
2.812047708E0,1.943208147E-2,5.870878603E-3,1.331001699E-2,2.427405113E-2
2.822009708E0,1.605332501E-3,-8.631403930E-3,2.082778215E-3,9.023092117E-3
2.831971708E0,1.574515619E-2,3.473666366E-3,-2.257609963E-3,1.628106582E-2
2.841933708E0,9.758920697E-3,3.567623813E-3,-6.597413421E-3,1.230814107E-2
2.851895708E0,6.529293358E-3,-4.223169778E-3,-9.045642614E-4,7.828478219E-3
2.861857708E0,-6.614669559E-3,-3.824060764E-3,1.900520504E-2,2.048353272E-2
2.871819708E0,-7.220253807E-3,-1.188159702E-2,3.157847285E-2,3.450368619E-2
2.881781708E0,-6.410665687E-3,-9.555739090E-3,3.726430535E-2,3.900047740E-2
2.891743708E0,-8.047456664E-3,4.150700849E-3,5.232673287E-3,1.045804695E-2
2.901705708E0,-1.123103946E-3,1.174321901E-2,-1.138160527E-2,1.639223882E-2
2.911667708E0,-6.759283079E-3,2.637847088E-2,-3.297829628E-3,2.742967944E-2
2.921629708E0,2.620619272E-3,2.542572191E-2,4.864591062E-2,5.495233935E-2
2.931591708E0,1.711919248E-2,2.350147633E-2,5.507784784E-2,6.228126093E-2
2.941553708E0,1.844592114E-2,1.408371326E-2,3.546453238E-2,4.238320472E-2
2.951515708E0,1.108740809E-2,2.127732340E-2,-8.697733283E-3,2.552069109E-2
2.961477708E0,6.825208152E-4,1.469591673E-2,-1.887656629E-2,2.393241647E-2
2.971439708E0,8.780507930E-3,3.452104758E-3,3.770577013E-2,3.886823186E-2
2.981402708E0,-9.621600208E-3,-3.901061285E-3,5.776464343E-2,5.869026751E-2
2.991364708E0,1.634309566E-2,1.296166912E-2,1.165817857E-2,2.389591533E-2
3.001326708E0,2.047836534E-3,-9.127540179E-3,-1.828131974E-2,2.053563429E-2
3.011288708E0,7.186728248E-3,-2.061580231E-2,-4.762089372E-2,5.238711565E-2
3.021250708E0,-2.883223209E-3,-1.179359643E-2,5.806285143E-2,5.931860255E-2
3.031212708E0,-2.112964466E-3,-1.302607985E-2,4.444234729E-2,4.636017264E-2
3.041174708E0,-3.879712096E-3,-6.219975650E-3,3.995343983E-2,4.062040888E-2
3.051136708E0,-5.206191796E-3,1.386782309E-2,-2.381044686E-2,2.804208141E-2
3.061098708E0,-3.004575775E-3,1.877248585E-2,6.730729938E-3,2.016770751E-2
3.071060708E0,2.256623246E-3,3.520749243E-2,2.439458370E-2,4.289237212E-2
3.081022708E0,-2.157499236E-3,2.923019450E-2,4.220754147E-2,5.138614239E-2
3.090984500E0,4.587972080E-3,1.763576886E-2,2.020096064E-2,2.720567297E-2
3.100946500E0,1.611138603E-2,1.058665803E-2,2.214340568E-2,2.935957260E-2
3.110908500E0,1.756456987E-2,8.141809255E-3,5.974684954E-3,2.026080040E-2
3.120870500E0,2.092694271E-2,8.768265322E-4,1.645055652E-2,2.663318542E-2
3.130832500E0,1.902867156E-2,-8.981542513E-3,2.378471911E-2,3.175643730E-2
3.140794500E0,2.321772420E-2,4.418521598E-3,1.240662217E-2,2.669288901E-2
3.150756500E0,1.126586009E-2,1.943705846E-3,-3.151649237E-4,1.143664833E-2
3.160718500E0,1.595773902E-2,-3.653687518E-3,2.243927479E-2,2.777624741E-2
3.170680500E0,-1.969703115E-3,-1.059911991E-2,2.603297353E-2,2.817688386E-2
3.180642500E0,-5.158804224E-3,4.492324423E-3,1.630379140E-2,1.768071984E-2
3.190604500E0,-5.574082159E-3,1.768563464E-3,1.316149771E-2,1.440219534E-2
3.200566500E0,-8.879083763E-3,-1.253569946E-3,1.226395011E-2,1.519256523E-2
3.210528500E0,5.167611593E-3,3.537236564E-3,8.372043371E-3,1.045501613E-2
3.220490500E0,-2.402689434E-3,6.497115400E-3,4.040601432E-2,4.099550486E-2
3.230452500E0,1.582946344E-3,-1.188592762E-3,2.962959588E-2,2.969564654E-2
3.240414500E0,-6.482648109E-3,1.450306825E-2,3.277364373E-2,3.642081052E-2
3.250376500E0,-6.569703100E-3,2.393009551E-2,-4.049781561E-3,2.514381038E-2
3.260338500E0,1.525163291E-2,2.907712536E-2,1.436485469E-2,3.583909285E-2
3.270300500E0,1.734238481E-2,1.526793888E-2,3.128026485E-2,3.888860036E-2
3.280262500E0,7.049323248E-3,2.095187103E-2,1.496419430E-2,2.669458689E-2
3.290224500E0,2.638399604E-2,1.392284174E-2,-1.501564980E-3,2.986997601E-2
3.300186500E0,1.368674213E-2,-4.552952740E-3,1.032150507E-2,1.773667826E-2
3.310149500E0,1.294335546E-2,3.540671803E-4,3.995694816E-2,4.200254183E-2
3.320111500E0,1.361184295E-2,1.341073528E-2,2.932378650E-2,3.500020777E-2
3.330073500E0,5.543644661E-3,1.259884939E-2,5.812132359E-4,1.377682151E-2
3.340035500E0,7.165052437E-3,6.609911844E-4,3.129429817E-3,7.846541706E-3
3.349997500E0,-1.899808331E-3,-1.533121672E-3,1.555593252E-2,1.574632562E-2
3.359959500E0,-7.401149757E-3,5.166563205E-3,4.010546744E-2,4.110862332E-2
3.369921500E0,3.243420830E-3,-3.167875260E-3,7.771534324E-3,8.997330609E-3
3.379883500E0,-8.986364182E-3,7.963816356E-3,1.675519645E-2,2.061343543E-2
3.389845500E0,-1.495713196E-3,1.485973014E-2,-4.799979329E-3,1.568720941E-2
3.399807500E0,2.670953292E-3,1.034396203E-2,2.723340690E-2,2.925388852E-2
3.409769500E0,-5.269716312E-3,8.255373146E-3,5.133329093E-2,5.225923702E-2
3.419731500E0,4.896234549E-3,1.711838163E-2,1.450928092E-2,2.296805032E-2
3.429693500E0,-3.677103790E-3,1.206481587E-2,2.363912344E-2,2.679345128E-2
3.439655500E0,1.787101422E-2,4.741178267E-4,-1.303695202E-2,2.212600404E-2
3.449617500E0,1.160059948E-2,1.435146092E-2,2.588328481E-2,3.178809166E-2
3.459579500E0,1.626077097E-2,3.704393841E-4,2.558566153E-2,3.031791506E-2
3.469541500E0,1.529914154E-2,-5.640918575E-4,6.576363444E-3,1.666224738E-2
3.479503500E0,3.809068138E-3,-8.547971472E-3,4.332202077E-3,1.031236109E-2
3.489465500E0,6.104280723E-3,7.042569257E-3,1.376200676E-2,1.662085602E-2
3.499427500E0,2.217323561E-3,1.281954523E-2,2.558916986E-2,2.870649539E-2
3.509389500E0,1.738610188E-4,2.037115116E-2,1.495893180E-2,2.527416997E-2
3.519351500E0,7.533573203E-3,1.087691747E-3,9.868930578E-3,1.246328967E-2
3.529313500E0,-2.362793607E-3,1.622737560E-2,1.226336539E-2,2.047683187E-2
3.539275500E0,-7.554154946E-3,1.440975035E-2,1.106644034E-2,1.967669342E-2
3.549237500E0,-8.538449190E-3,8.758781869E-3,8.221769929E-3,1.473834710E-2
3.559199500E0,-7.967078006E-3,8.759859949E-3,2.214282095E-2,2.511003780E-2
3.569161500E0,1.961172118E-3,2.417894935E-2,1.974721670E-2,3.127971156E-2
3.579123500E0,5.834913659E-3,1.195492476E-2,8.519393206E-3,1.579704099E-2
3.589085500E0,4.144913019E-3,2.607730273E-3,3.905764639E-2,3.936343866E-2
3.599047500E0,3.801386815E-3,1.273443170E-2,2.902616322E-2,3.192388516E-2
3.609009500E0,2.196025992E-2,2.185358478E-2,6.722543836E-3,3.170212578E-2
3.618972500E0,2.661848995E-3,1.198580537E-2,1.330884755E-2,1.810719176E-2
3.628934500E0,9.801941130E-3,-5.514655262E-5,1.809654772E-2,2.058072230E-2
3.638896500E0,9.696567908E-3,1.096179346E-2,7.766271830E-3,1.656802110E-2
3.648858500E0,5.091874162E-4,1.062872143E-2,-2.217088759E-2,2.459221925E-2
3.658820500E0,-3.602227452E-4,1.490669059E-2,1.959401965E-2,2.462244486E-2
3.668782500E0,4.234121887E-3,1.328946037E-2,2.333565295E-2,2.718621422E-2
3.678744500E0,4.305215806E-3,8.882541843E-3,2.530674934E-3,1.019012995E-2
3.688706500E0,-7.904298096E-3,2.234818613E-2,2.983834147E-3,2.389189440E-2
3.698668500E0,2.411864537E-3,1.691078721E-2,1.780418694E-2,2.467348551E-2
3.708630500E0,-9.934828242E-3,7.559298668E-3,3.322446406E-2,3.549237694E-2
3.718592500E0,-6.924398399E-3,6.998130418E-3,2.199664056E-2,2.409923896E-2
3.728554500E0,8.042824573E-3,-1.088908698E-2,5.827919841E-3,1.473851730E-2
3.738516500E0,-8.915768189E-3,3.094748519E-3,2.424255610E-2,2.601480188E-2
3.748478500E0,-4.872850254E-3,1.874909699E-3,2.484189570E-2,2.538463586E-2
3.758440500E0,-7.891925296E-3,6.385780759E-3,6.279909611E-3,1.193725033E-2
3.768402500E0,-5.531344952E-3,1.069351589E-2,-3.449272513E-3,1.252375902E-2
3.778364500E0,4.286803929E-3,7.077360190E-3,1.406547725E-2,1.631880405E-2
3.788326500E0,6.408927510E-3,1.361557055E-2,1.825793087E-2,2.366030755E-2
3.798288500E0,8.550308074E-3,1.145871542E-2,5.984625220E-3,1.549921502E-2
3.808250500E0,7.569284616E-3,7.785914820E-3,-5.239689946E-3,1.205690217E-2
3.818212500E0,6.356631476E-4,5.085798539E-4,-4.787700176E-3,4.856417824E-3
3.828174500E0,-1.045726554E-2,1.979803266E-2,1.167805910E-2,2.525259520E-2
3.838136500E0,1.299796297E-2,6.496000774E-3,1.587285161E-2,2.151958377E-2
3.848098500E0,5.377037844E-3,1.048243141E-2,5.838561773E-2,5.956235608E-2
3.858060500E0,5.254664300E-3,1.449625259E-2,3.832440555E-2,4.130996123E-2
3.868022500E0,8.560725711E-3,1.629735947E-2,6.286926270E-3,1.945290190E-2
3.877984500E0,-3.934858649E-3,3.235339338E-2,-3.893076181E-3,3.282348577E-2
3.887946500E0,-3.841310050E-3,1.441263741E-2,8.963781595E-4,1.494266622E-2
3.897908500E0,2.010864315E-3,1.177802822E-2,2.889050782E-2,3.126382839E-2
3.907870500E0,2.580612897E-2,-9.946040735E-3,1.018000245E-2,2.947053560E-2
3.917832500E0,1.176416392E-2,-1.912805138E-2,7.786737084E-3,2.376786016E-2
3.927794500E0,5.587973865E-4,-1.133758670E-2,1.092961550E-2,1.575784318E-2
3.937756500E0,2.107322360E-2,6.667598281E-3,-1.196340322E-3,2.213524000E-2
3.947719500E0,1.366441079E-2,9.540353604E-3,1.916074097E-2,2.539426045E-2
3.957681500E0,-7.085123740E-3,1.112906037E-2,3.594868183E-3,1.367399138E-2
3.967643500E0,1.409247037E-2,-1.201198993E-2,-9.684392452E-2,9.859833335E-2
3.977605500E0,-8.098834504E-3,-1.021682164E-2,1.613720423E-1,1.618978400E-1
3.987567500E0,-7.177454929E-3,1.729781806E-2,1.192989868E-1,1.207600042E-1
3.997529500E0,1.502620219E-3,1.803052900E-2,-1.961565435E-2,2.668579658E-2
4.007491500E0,-4.180105948E-3,3.352024181E-2,-1.016468275E-1,1.071128257E-1
4.017453500E0,1.597277048E-2,1.974880641E-2,-1.542261600E-2,2.971534681E-2
4.027415500E0,1.885197144E-3,1.010599863E-3,9.070785642E-2,9.073307278E-2
4.037377500E0,2.171040108E-2,-1.289455405E-2,8.247029901E-2,8.624941308E-2
4.047339500E0,1.131906062E-2,-2.119701555E-2,-2.485826790E-2,3.457409557E-2
4.057301500E0,2.083855839E-2,-1.004694175E-2,-5.464398444E-2,5.933929212E-2
4.067263500E0,1.058872283E-2,-3.695531655E-3,-5.808039308E-2,5.915327603E-2
4.077225500E0,1.329506091E-3,-1.803500578E-5,3.024121463E-2,3.027043069E-2
4.087187708E0,1.878759497E-2,-2.097301237E-2,8.129266977E-2,8.603103586E-2
4.097149708E0,7.431306315E-3,4.986395873E-3,7.006835461E-2,7.063754508E-2
4.107111708E0,1.915968116E-3,2.072657051E-2,-3.366592884E-2,3.958101089E-2
4.117073708E0,-5.551954103E-4,3.364049345E-2,2.815785170E-2,4.387317693E-2
4.127035708E0,4.844363350E-3,3.627711263E-2,4.926162243E-2,6.136940770E-2
4.136997708E0,3.398308090E-3,3.719698928E-2,5.106081069E-2,6.326429402E-2
4.146959708E0,-2.718203820E-3,2.820250981E-2,-5.375345349E-3,2.883859443E-2
4.156921708E0,-4.159503649E-3,1.674529273E-2,1.602838755E-2,2.355027615E-2
4.166883708E0,-7.374816730E-3,2.017022621E-2,4.147196174E-2,4.670277890E-2
4.176845708E0,-1.496039818E-3,2.292051891E-2,4.505922854E-2,5.057590730E-2
4.186807708E0,-5.358463798E-3,-3.158245627E-3,-9.580078125E-3,1.142215157E-2
4.196769708E0,-2.945052946E-3,-1.643560957E-2,-1.736506104E-2,2.409041187E-2
4.206731708E0,-9.321151539E-3,-1.730337292E-2,2.093303204E-3,1.976543697E-2
4.216693708E0,-5.943370373E-3,-1.640467415E-2,5.373649657E-2,5.649821279E-2
4.226655708E0,3.556253719E-3,-1.413690465E-2,3.098322630E-2,3.424119340E-2
4.236617708E0,1.065423220E-2,-2.482623613E-2,-2.499918580E-2,3.680779747E-2
4.246579708E0,2.474659979E-2,-1.162855877E-2,-5.897501707E-2,6.500515532E-2
4.256541708E0,2.993459669E-2,-1.360153724E-3,2.402620912E-3,3.006164807E-2
4.266503708E0,3.257948420E-2,7.884970307E-4,5.255126595E-2,6.183591247E-2
4.276466708E0,3.052783327E-2,2.079385003E-2,4.103049695E-2,5.520719594E-2
4.286428708E0,1.134099224E-2,4.258351743E-2,3.669127822E-2,5.734303758E-2
4.296390708E0,1.604928221E-3,4.642272614E-2,-5.800437927E-4,4.645408214E-2
4.306352708E0,-8.469938552E-3,4.899994126E-2,3.115688860E-2,5.868122195E-2
4.316314708E0,-1.001247287E-2,3.824570568E-2,6.139342546E-2,7.302147839E-2
4.326276708E0,-5.392708839E-4,2.637019342E-2,5.749917984E-2,6.326004739E-2
4.336238708E0,-6.507144745E-3,9.619729556E-3,2.351574719E-2,2.622732345E-2
4.346200708E0,-3.714669866E-3,-6.377868745E-3,-2.684456706E-3,7.853807341E-3
4.356162708E0,-8.288494425E-3,-2.467853911E-3,1.302876592E-2,1.563771672E-2
4.366124708E0,-5.604814303E-3,-6.712585296E-3,3.877288699E-2,3.974681761E-2
4.376086708E0,1.775126507E-2,-1.785659261E-2,5.988718271E-3,2.588107528E-2
4.386048708E0,1.473836158E-2,-4.296004158E-3,-3.098673463E-2,3.458110289E-2
4.396010708E0,5.503810504E-3,1.484291939E-2,-1.946011841E-2,2.508586045E-2
4.405972708E0,5.089430208E-3,-1.952158727E-2,2.634696901E-2,3.318369246E-2
4.415934708E0,-9.386060201E-4,5.277057309E-3,3.263564944E-2,3.307285790E-2
4.425896708E0,9.405161866E-3,2.572190166E-3,1.002855957E-2,1.398732422E-2
4.435858708E0,1.799501859E-2,-7.159422208E-3,-5.988133550E-3,2.027155060E-2
4.445820708E0,8.407158642E-3,9.382515326E-3,1.317436159E-2,1.822843146E-2
4.455782708E0,1.589148504E-2,2.523557777E-2,2.664634645E-2,3.999251756E-2
4.465744708E0,2.803084378E-3,3.203413540E-2,4.595794559E-2,5.609078245E-2
4.475706708E0,-8.556931873E-3,2.549851974E-2,4.969899416E-2,5.651004878E-2
4.485668708E0,1.306135958E-2,1.275884382E-2,8.235803246E-3,2.003036856E-2
4.495630708E0,-7.673931504E-3,3.381209096E-2,1.242825687E-2,3.683216378E-2
4.505592708E0,-4.384589475E-3,2.069729788E-2,2.934132814E-2,3.617341982E-2
4.515554708E0,2.514535706E-3,1.123778204E-2,3.128435791E-2,3.333649178E-2
4.525516708E0,3.325775207E-3,9.606975317E-3,2.065178096E-2,2.301848849E-2
4.535478708E0,6.778213440E-3,1.242383491E-2,1.361290276E-2,1.963687788E-2
4.545440708E0,8.133952059E-3,1.317807091E-2,2.535937428E-3,1.569247296E-2
4.555402708E0,1.412229803E-2,-1.231012484E-2,1.379942894E-4,1.873492774E-2
4.565364708E0,2.668404272E-3,1.401080579E-2,-4.201809168E-3,1.486870070E-2
4.575326708E0,1.148145104E-2,-7.848571390E-3,-2.255855799E-3,1.408945266E-2
4.585288708E0,1.451910242E-2,-1.415263731E-3,1.346145988E-2,1.984989190E-2
4.595251708E0,1.487262142E-2,-1.081378581E-2,1.076589346E-2,2.130815087E-2
4.605213708E0,7.640664044E-3,-1.445724070E-4,1.675285757E-2,1.841355166E-2
4.615175708E0,-3.039455786E-4,9.889103472E-5,9.868345857E-3,9.873520765E-3
4.625137708E0,7.642402221E-3,1.188000731E-2,1.510862052E-2,2.068359977E-2
4.635099708E0,-8.198433600E-3,1.674313657E-3,2.573710442E-2,2.706318872E-2
4.645061708E0,5.137829622E-4,3.191320768E-2,2.708371818E-2,4.185982068E-2
4.655023708E0,-2.611101558E-3,2.102404760E-2,2.423904777E-2,3.219254363E-2
4.664985708E0,-6.047759161E-3,2.955561033E-2,2.244278312E-2,3.760037243E-2
4.674947708E0,-5.724042684E-3,2.683722150E-2,9.420449138E-3,2.901285895E-2
4.684909708E0,1.060103624E-2,2.736277655E-2,2.573418081E-2,3.903013671E-2
4.694871708E0,8.584532558E-3,9.310704209E-3,3.591184437E-2,3.807944299E-2
4.704833708E0,1.231053597E-3,1.566818079E-2,1.570211291E-2,2.221629429E-2
4.714795708E0,4.244799907E-3,1.447889367E-2,1.704463363E-2,2.276348444E-2
4.724757708E0,1.940361969E-3,4.153423458E-3,1.030864120E-2,1.128202173E-2
4.734719708E0,1.151836388E-2,2.893951479E-3,3.121243715E-3,1.227965080E-2
4.744681708E0,1.993206181E-3,2.733025141E-3,3.140890360E-2,3.159052900E-2
4.754643708E0,1.114388169E-2,-3.226310872E-3,9.553180933E-3,1.502858766E-2
4.764605708E0,1.102290143E-2,-6.099395100E-3,1.620263457E-3,1.270166250E-2
4.774567708E0,-3.283485677E-3,1.317140143E-3,-1.873564839E-2,1.906674217E-2
4.784529708E0,4.407299969E-3,-4.516060464E-3,3.721752763E-3,7.326017933E-3
4.794491708E0,3.491856689E-3,2.072161864E-3,1.450343370E-2,1.506109250E-2
4.804453708E0,3.247737719E-3,3.724859096E-4,3.620946765E-2,3.635673381E-2
4.814415708E0,-3.097254143E-3,5.879539791E-3,3.561188221E-2,3.622662178E-2
4.824377708E0,-7.412528987E-3,1.665383862E-2,1.330826283E-2,2.257001963E-2
4.834339708E0,5.133489892E-4,2.028824860E-2,1.485777497E-3,2.034905632E-2
4.844301708E0,8.429768637E-3,2.291885611E-2,1.675578117E-2,2.961572500E-2
4.854263708E0,2.209975712E-3,1.373569429E-2,6.181325555E-2,6.335954428E-2
4.864225708E0,-1.330723499E-3,1.857612904E-2,6.510465324E-2,6.771601929E-2
4.874187708E0,7.308832272E-3,1.870051028E-2,2.872737050E-2,3.504839411E-2
4.884149708E0,-7.313080640E-3,1.734214727E-2,-1.438648939E-2,2.368970868E-2
4.894111708E0,1.832099401E-3,1.484951578E-2,3.724676371E-3,1.541875226E-2
4.904073708E0,2.684808453E-3,9.065705873E-3,8.962027431E-3,1.302740017E-2
4.914035708E0,-4.668158877E-3,-6.992356293E-4,3.560778916E-2,3.591928850E-2
4.923998708E0,8.313287990E-3,-3.486950509E-3,4.937739730E-2,5.019359466E-2
4.933960708E0,1.457665181E-3,-9.408553708E-3,4.918093085E-3,1.071603053E-2
4.943922708E0,-8.051570272E-4,-5.181692876E-3,-1.708673358E-2,1.787329526E-2
4.953884708E0,-1.440831595E-3,4.133798741E-4,3.119489551E-3,3.460938263E-3
4.963846708E0,-5.745158899E-3,-6.785035953E-3,1.629268169E-2,1.856057759E-2
4.973808708E0,5.077196737E-3,6.473342814E-3,2.871859968E-2,2.987373531E-2
4.983770708E0,1.033479378E-3,-1.152338197E-2,1.749253035E-2,2.097248268E-2
4.993732708E0,2.765744424E-3,7.693656720E-4,-7.951043844E-3,8.453423210E-3
5.003694708E0,3.749481356E-4,1.389291130E-2,-2.142185926E-2,2.553526238E-2
5.013656708E0,6.706550787E-3,1.685063398E-2,6.271138787E-3,1.918981163E-2
5.023618708E0,1.082528838E-2,1.862120742E-2,2.677907825E-2,3.436648463E-2
5.033580708E0,9.755716149E-3,2.073104728E-2,2.648379385E-2,3.501916127E-2
5.043542708E0,1.171536023E-2,2.837575184E-2,4.684087515E-2,5.600446895E-2
5.053504708E0,8.055617642E-3,2.772020588E-2,8.218846321E-3,3.001420038E-2
5.063466708E0,7.847057052E-3,1.963146010E-2,4.177250862E-3,2.155040498E-2
5.073428708E0,3.173336468E-3,1.524370948E-2,7.022505999E-3,1.708087625E-2
5.083390708E0,1.744192452E-3,1.111371143E-2,4.938675284E-2,5.065183260E-2
5.093352625E0,-2.852280932E-3,3.070062306E-3,3.471667349E-2,3.496867466E-2
5.103314625E0,2.447196795E-3,1.303563640E-3,1.375908315E-2,1.403568379E-2
5.113276625E0,-7.744363043E-3,7.290747017E-5,-1.962033212E-2,2.109355131E-2
5.123238625E0,-7.134331714E-3,3.672416881E-4,-1.348309457E-2,1.525868260E-2
5.133200625E0,-8.511143150E-3,5.088009518E-3,1.750364006E-2,2.011727650E-2
5.143162625E0,2.473445311E-3,-3.794367872E-3,2.948049188E-2,2.982640710E-2
5.153124625E0,-5.375230004E-3,5.954457242E-3,1.959986687E-2,2.117789980E-2
5.163086625E0,6.214471045E-3,9.440092128E-3,1.166577995E-2,1.624270333E-2
5.173048625E0,1.446306736E-2,1.524422111E-2,3.433485031E-3,2.129214442E-2
5.183010625E0,1.288584603E-2,1.190213537E-2,-2.253516912E-3,1.768570589E-2
5.192972625E0,5.118805615E-3,-1.842165291E-3,1.361699581E-2,1.466350295E-2
5.202934625E0,1.156284154E-2,1.417626372E-2,3.697194457E-2,4.125033870E-2
5.212896625E0,1.158106727E-2,1.150090674E-2,3.577385008E-2,3.932124521E-2
5.222858625E0,6.643409994E-3,9.453394543E-3,3.128201902E-2,3.334765777E-2
5.232820625E0,-4.012233757E-3,1.220131181E-2,1.002914429E-2,1.629582047E-2
5.242782625E0,-4.211205826E-4,6.524231862E-3,1.287264526E-2,1.443772627E-2
5.252745625E0,2.975822777E-3,2.128651449E-2,7.335916758E-3,2.271094219E-2
5.262707625E0,-3.242813267E-3,1.184954697E-2,1.616813600E-2,2.030606370E-2
5.272669625E0,-9.257407752E-3,2.278678212E-3,2.080790162E-2,2.288800434E-2
5.282631625E0,8.065377467E-3,6.030799951E-3,1.332346559E-2,1.670136512E-2
5.292593625E0,3.977239542E-3,6.425907277E-4,2.170603395E-2,2.207675852E-2
5.302555625E0,1.222161718E-3,5.398186035E-3,9.133350849E-3,1.067952197E-2
5.312517625E0,-3.369935390E-3,8.537263758E-3,2.125813723E-2,2.315490737E-2
5.322479625E0,5.500806954E-3,6.005090475E-3,2.095817506E-2,2.248477464E-2
5.332441625E0,3.779128566E-4,-1.962270755E-3,7.337670922E-3,7.604915464E-3
5.342403625E0,6.845175480E-3,-3.154792115E-3,-1.943614483E-3,7.783750888E-3
5.352365625E0,6.441739298E-3,-2.913430016E-3,5.692264438E-3,9.076670870E-3
5.362327625E0,1.863510826E-2,1.429593064E-2,1.167981327E-2,2.623087743E-2
5.372289625E0,9.609753886E-3,4.769847896E-3,2.844378054E-2,3.039979392E-2
5.382251625E0,9.767662970E-3,1.286016511E-2,2.335377932E-2,2.839348684E-2
5.392213625E0,4.167294607E-3,2.972488722E-2,-7.443505526E-4,3.002481178E-2
5.402175625E0,1.589513841E-2,7.487341370E-3,1.213063359E-2,2.135106501E-2
5.412137625E0,1.650912346E-2,6.150284149E-3,1.348192513E-2,2.218421641E-2
5.422099625E0,-4.272531926E-3,1.726180287E-2,3.069495857E-2,3.547400244E-2
5.432061625E0,-8.080836043E-3,9.931404423E-3,1.901865363E-2,2.292688140E-2
5.442023625E0,-5.994556351E-3,1.268103931E-2,2.769942999E-2,3.104837976E-2
5.451985625E0,-3.053765476E-3,8.351925295E-3,3.054351568E-2,3.181173510E-2
5.461947625E0,-8.493760246E-3,3.262380883E-3,6.293942928E-3,1.106348994E-2
5.471909625E0,-4.997839057E-4,-2.839188650E-4,-1.640728712E-3,1.738500670E-3
5.481871625E0,8.267643163E-5,-1.905589309E-3,1.138160527E-2,1.154032255E-2
5.491833625E0,5.972574474E-3,-1.344256606E-3,1.632191777E-2,1.743225950E-2
5.501795625E0,1.330332695E-2,1.972430293E-3,1.363102913E-2,1.914873219E-2
5.511757625E0,2.239170677E-3,1.522618610E-2,1.957063079E-3,1.551388812E-2
5.521719625E0,1.287496816E-2,1.966869956E-2,1.707679331E-2,2.905579834E-2
5.531681625E0,9.816259956E-3,2.136592699E-2,1.438531995E-2,2.756445584E-2
5.541643625E0,-1.432576971E-3,1.384077972E-2,3.983357191E-2,4.219399141E-2
5.551605625E0,-7.538408577E-4,1.878681153E-2,1.767964125E-2,2.580856986E-2
5.561567625E0,5.358836101E-4,2.159798836E-2,2.321929336E-2,3.171586128E-2
5.571529625E0,5.581870833E-3,2.446581010E-2,2.696034193E-2,3.683195871E-2
5.581491625E0,-3.547423510E-3,3.375926502E-3,1.094306409E-2,1.198881750E-2
5.591454625E0,-4.125710854E-3,4.898504913E-3,1.408594251E-2,1.547354571E-2
5.601416625E0,5.901711246E-3,1.501840895E-2,1.962910295E-3,1.625533204E-2
5.611378625E0,6.983386755E-3,-1.158163486E-2,3.309699476E-2,3.575350359E-2
5.621340625E0,-7.364638920E-3,9.916293025E-3,7.654005289E-4,1.237564591E-2
5.631302625E0,-4.431347785E-3,9.879364204E-3,1.004727066E-2,1.477113157E-2
5.641264625E0,2.171372669E-3,1.298503971E-2,3.863840103E-2,4.081975196E-2
5.651226625E0,1.682320460E-3,6.990784854E-3,2.411917984E-2,2.516815669E-2
5.661188625E0,8.363295388E-3,1.469012434E-2,1.244170547E-2,2.098905662E-2
5.671150625E0,2.303471777E-3,-3.318020795E-3,1.304162979E-2,1.365281480E-2
5.681112625E0,1.275334150E-2,-1.301900838E-3,-1.326148510E-3,1.288803069E-2
5.691074625E0,1.563681139E-2,1.173890669E-2,1.217975020E-3,1.959069330E-2
5.701036625E0,1.281843517E-2,7.762398049E-3,6.458834410E-3,1.631819983E-2
5.710998625E0,1.824557406E-3,9.400276244E-3,2.906241596E-2,3.059931739E-2
5.720960625E0,-6.293922372E-3,-5.346620902E-3,2.232466936E-2,2.380316525E-2
5.730922625E0,9.094181356E-3,-1.132459491E-3,6.307391524E-3,1.112518705E-2
5.740884625E0,-6.445922570E-3,2.557170130E-3,7.057004571E-3,9.893955244E-3
5.750846625E0,3.875130254E-3,-1.157525774E-2,2.232291520E-2,2.544240101E-2
5.760808625E0,-6.757478665E-3,-7.134498451E-3,7.804278731E-3,1.254875901E-2
5.770770625E0,-7.781970233E-3,-2.830509190E-3,2.232934713E-2,2.381534351E-2
5.780732625E0,-7.492951043E-3,2.166612670E-3,2.278075218E-2,2.407906136E-2
5.790694625E0,3.149963594E-3,-1.000712587E-2,3.071542382E-2,3.245769707E-2
5.800656625E0,5.294308879E-3,-2.776769623E-3,2.233577907E-2,2.312200646E-2
5.810618625E0,2.530387142E-3,2.984144781E-3,2.338593900E-2,2.371097050E-2
5.820580625E0,1.238337721E-2,1.734625859E-2,1.485368192E-2,2.597830989E-2
5.830542625E0,3.126129338E-3,1.055806149E-2,2.907527983E-2,3.109046871E-2
5.840504625E0,1.609534273E-2,1.340203755E-2,2.144115508E-2,2.997328476E-2
5.850466625E0,6.335572363E-3,-4.403885286E-3,1.665111601E-2,1.835193034E-2
5.860428625E0,2.996576966E-3,2.014585063E-3,-3.855654001E-3,5.282432609E-3
5.870390625E0,1.583566926E-2,1.173695153E-2,-3.406003118E-3,2.000313248E-2
5.880352625E0,-2.732659690E-5,-3.158464897E-3,1.695341706E-2,1.724514417E-2
5.890314625E0,1.439232062E-2,-8.887749519E-3,3.925820589E-2,4.274737084E-2
5.900276625E0,1.575383336E-2,-7.056858391E-5,1.261419833E-2,2.018182957E-2
5.910238625E0,3.149513633E-3,6.165176276E-3,3.408926725E-4,6.931453127E-3
5.920201625E0,-6.913759208E-3,2.035927400E-4,1.560855746E-2,1.707245098E-2
5.930163625E0,-3.311442677E-4,1.147762751E-2,3.925820589E-2,4.090296223E-2
5.940125625E0,7.077723357E-3,7.865034956E-3,1.830236971E-2,2.114071143E-2
5.950087625E0,1.436493235E-2,2.175153259E-2,-1.208327115E-2,2.873127030E-2
5.960049625E0,7.759650315E-3,2.002813887E-2,-1.004551649E-3,2.150227066E-2
5.970011625E0,-3.021751971E-3,7.110872045E-3,-3.997156620E-3,8.699008407E-3
5.979973625E0,3.826406503E-3,-2.225685993E-2,4.120942175E-2,4.699176143E-2
5.989935625E0,6.078632916E-3,-1.389890470E-2,2.294798255E-2,2.750889371E-2
5.999897625E0,1.212230588E-2,5.293283332E-3,3.013187170E-2,3.290742835E-2
6.009859625E0,3.027793332E-3,1.484259048E-2,4.681865573E-3,1.585527956E-2
6.019821625E0,-5.685617798E-4,1.993186081E-2,1.950104892E-2,2.789073765E-2
6.029783625E0,-5.753342716E-3,2.518430499E-2,2.099793613E-2,3.329059165E-2
6.039745625E0,1.175870271E-2,4.628674183E-3,-6.686817348E-2,6.805177690E-2
6.049707625E0,1.690281581E-3,2.166923303E-2,9.539439976E-2,9.783917527E-2
6.059669625E0,-2.666202430E-3,1.649092058E-2,1.263706094E-1,1.274699573E-1
6.069631625E0,1.094977926E-3,1.147753615E-3,7.212540507E-3,7.384920825E-3
6.079593625E0,-1.923551224E-3,2.264917156E-2,-5.431595564E-2,5.888045566E-2
6.089555750E0,2.245887666E-2,8.346078079E-3,-1.494957626E-2,2.824089217E-2
6.099517750E0,1.755387586E-2,4.292002469E-3,2.801108658E-2,3.333437887E-2
6.109479750E0,1.341435324E-2,-2.542497274E-2,5.405575454E-2,6.122416770E-2
6.119441750E0,2.017182506E-2,-3.748785172E-2,-2.228373885E-2,4.805004235E-2
6.129403750E0,7.323820330E-4,-1.956966234E-2,-5.236941755E-2,5.591121499E-2
6.139365750E0,3.415989066E-3,-1.878905905E-2,-5.086551368E-2,5.433229430E-2
6.149327750E0,3.632655814E-3,-5.190701243E-3,1.186224639E-2,1.344813954E-2
6.159289750E0,-8.096564140E-3,-2.220341273E-2,2.893319249E-2,3.735874082E-2
6.169251750E0,5.951152195E-3,-1.321629709E-2,8.537344158E-2,8.659509944E-2
6.179213750E0,1.886170157E-3,1.237120997E-2,5.334122479E-2,5.478951301E-2
6.189175750E0,1.439634743E-3,2.243856216E-2,5.513631999E-2,5.954473447E-2
6.199137750E0,-5.176236236E-3,3.917247109E-2,-5.159466147E-2,6.498680640E-2
6.209099750E0,1.079573938E-2,5.157006662E-2,-2.838881671E-2,5.984934983E-2
6.219061750E0,-7.954741751E-3,4.938551031E-2,4.196722090E-2,6.529513133E-2
6.229024750E0,8.676797510E-3,4.854601460E-2,1.033378422E-1,1.145020174E-1
6.238986750E0,7.643745253E-3,3.179869361E-2,6.725876749E-2,7.478853897E-2
6.248948750E0,-8.993819382E-3,2.491018021E-2,7.375677824E-3,2.749193498E-2
6.258910750E0,-6.386641853E-3,7.952724919E-3,-3.873137176E-2,4.005189367E-2
6.268872750E0,-9.151189425E-4,-9.020463042E-3,-2.958106399E-3,9.537116421E-3
6.278834750E0,1.612166891E-2,-2.391567847E-2,6.784290433E-2,7.371924818E-2
6.288796750E0,1.509957333E-2,-1.685487321E-2,3.460733056E-2,4.134913777E-2
6.298758750E0,2.315691544E-3,-3.243141716E-2,-3.664800882E-2,4.899220139E-2
6.308720750E0,4.697735282E-3,-2.214885090E-2,-9.951610208E-2,1.020592714E-1
6.318682750E0,4.813249768E-3,1.382866502E-3,-3.858577609E-2,3.890940516E-2
6.328644750E0,1.888522748E-3,-1.810086004E-2,3.414773941E-4,1.820231467E-2
6.338606750E0,-7.228047049E-3,-5.349142514E-3,4.271040201E-2,4.364672301E-2
6.348568750E0,7.444720650E-3,3.407446649E-3,5.513631999E-2,5.574090366E-2
6.358530750E0,1.330700659E-3,4.060184123E-2,8.298076093E-2,9.239094631E-2
6.368492750E0,8.531727176E-4,3.920126863E-2,6.097418010E-2,7.249357216E-2
6.378454750E0,6.819776637E-3,4.642510157E-2,3.490787745E-4,4.692463388E-2
6.388416750E0,5.591413672E-3,5.126242999E-2,-3.976457477E-2,6.511775520E-2
6.398378750E0,7.961057201E-3,2.538506549E-2,1.367780685E-2,2.991425048E-2
6.408340750E0,1.463620890E-2,6.149114706E-3,7.340185225E-2,7.509901555E-2
6.418302750E0,2.275595633E-2,2.696187682E-3,4.750219524E-2,5.274051127E-2
6.428264750E0,2.461658832E-2,4.027324598E-3,-2.016061485E-2,3.207251401E-2
6.438226750E0,-3.912186984E-3,-5.237552058E-3,-1.342520714E-2,1.493229203E-2
6.448188750E0,-3.779480313E-3,-1.100486185E-2,3.477689981E-2,3.667184501E-2
6.458150750E0,-6.400426207E-3,-1.353314308E-2,3.732160807E-2,4.021211069E-2
6.468112750E0,-6.790341844E-3,-5.776062347E-3,1.037822306E-2,1.368134323E-2
6.478074750E0,-8.064278830E-3,-1.027012266E-2,-5.099415243E-2,5.263944903E-2
6.488036750E0,-7.520734454E-3,-1.548306160E-3,-1.042149246E-2,1.294473653E-2
6.497998750E0,1.336124180E-2,-1.389378838E-2,1.260074973E-3,1.931703722E-2
6.507960750E0,1.298561529E-3,-1.364226675E-2,2.716090143E-2,3.042223316E-2
6.517922750E0,7.128162445E-3,-2.711079810E-3,1.099861264E-2,1.338395060E-2
6.527884750E0,1.542739428E-2,9.225133862E-3,6.084963441E-2,6.344907877E-2
6.537846750E0,-4.291582201E-3,3.001606029E-2,-3.515930772E-3,3.052447087E-2
6.547808750E0,2.604363556E-4,3.172624296E-2,2.223286808E-2,3.874174418E-2
6.557770750E0,1.488098111E-3,4.884305315E-2,2.866831362E-2,5.665448334E-2
6.567733750E0,1.717684009E-2,2.292607376E-2,4.004524112E-2,4.923687673E-2
6.577695750E0,-2.776995746E-3,2.964878205E-2,-6.735992432E-4,2.978616656E-2
6.587657750E0,1.392402488E-2,2.560641915E-2,1.878184140E-2,3.467455460E-2
6.597619750E0,6.694767277E-3,4.430782478E-3,1.458821833E-2,1.665136200E-2
6.607581750E0,6.063966912E-3,-1.055245182E-2,2.117101371E-2,2.442002776E-2
6.617543750E0,-6.976459175E-3,-2.450175220E-2,7.247039080E-3,2.648634401E-2
6.627505750E0,8.062652573E-3,-1.789065264E-2,9.342096448E-3,2.173376600E-2
6.637467750E0,7.237139926E-4,-6.725010630E-3,-2.359176099E-2,2.454222314E-2
6.647429750E0,3.508694842E-3,-2.080104942E-2,-2.269362867E-2,3.098379219E-2
6.657391750E0,-3.939241776E-3,-2.086482061E-2,-1.535712719E-2,2.620495603E-2
6.667353750E0,-4.236709736E-3,-2.198602421E-2,7.696689963E-3,2.367644413E-2
6.677315750E0,2.212654925E-3,3.378027845E-3,2.027288139E-2,2.067115463E-2
6.687277750E0,7.445419575E-3,1.184061170E-5,7.251716852E-3,1.039335413E-2
6.697239750E0,1.589371201E-2,1.269719224E-2,-8.186101913E-5,2.034294653E-2
6.707201750E0,9.809090265E-3,8.385546785E-3,9.650829434E-3,1.611440832E-2
6.717163750E0,1.805379681E-2,1.625551533E-2,5.500826597E-2,6.013393953E-2
6.727125750E0,1.656803987E-2,3.127403392E-2,6.189277768E-2,7.129713228E-2
6.737087750E0,1.405781192E-2,3.828513784E-2,4.707008600E-2,6.228135236E-2
6.747049750E0,8.498576204E-3,2.445791636E-2,1.907537162E-2,3.216030585E-2
6.757011750E0,7.408077337E-3,2.622342831E-2,-5.326813459E-3,2.776549556E-2
6.766973750E0,1.543525147E-2,1.565646809E-2,-1.146171212E-2,2.479400786E-2
6.776935750E0,3.126236689E-3,-4.983088542E-3,2.491206229E-2,2.559717513E-2
6.786897750E0,-2.069468948E-3,-7.790738773E-3,6.188049853E-2,6.240332051E-2
6.796859750E0,-7.288188860E-3,-2.277315080E-2,2.010974407E-2,3.124317367E-2
6.806821750E0,-3.558821012E-3,-1.973881133E-2,-2.270239949E-2,3.029331316E-2
6.816783750E0,-7.025331391E-3,-1.681061709E-2,-4.680052936E-2,5.022192426E-2
6.826745750E0,-2.464009824E-3,-6.461611837E-3,-8.477293253E-3,1.094021356E-2
6.836707750E0,-6.444426505E-3,-1.839574244E-2,3.478567064E-2,3.987451385E-2
6.846669750E0,-1.006755775E-3,-5.648172777E-3,2.146688282E-2,2.222031663E-2
6.856631750E0,-5.032931487E-3,2.530071940E-3,-5.471824408E-3,7.853185705E-3
6.866593750E0,1.892793956E-3,1.002159772E-2,-2.163469791E-2,2.391809448E-2
6.876555750E0,-1.361898752E-4,1.438546613E-2,2.222760558E-2,2.647690755E-2
6.886517750E0,5.781530407E-3,2.878344895E-2,5.635955751E-2,6.354772026E-2
6.896480750E0,9.262154046E-3,2.925446045E-2,4.378512025E-2,5.346725829E-2
6.906442750E0,1.016248593E-2,2.600019258E-2,4.528083801E-2,5.319436460E-2
6.916404750E0,7.934685345E-3,3.961790102E-2,3.764671326E-2,5.522510599E-2
6.926366750E0,1.729773127E-2,1.454056352E-2,9.952545762E-3,2.469195541E-2
6.936328750E0,7.392641602E-3,1.498034723E-2,-3.818231821E-3,1.713595189E-2
6.946290750E0,1.259274064E-2,-4.408014882E-3,1.025426209E-2,1.682728746E-2
6.956252750E0,8.941960746E-3,-6.666374020E-4,1.684056580E-2,1.907898645E-2
6.966214750E0,3.968706261E-4,-9.919399358E-3,2.432441711E-2,2.627221456E-2
6.976176750E0,-9.096448295E-3,-1.849872652E-2,-3.969674706E-3,2.099301245E-2
6.986138750E0,-1.890646932E-3,-1.183039734E-2,-3.031255066E-2,3.259422610E-2
6.996100750E0,-4.707250712E-3,-2.227240987E-4,-1.728787780E-2,1.791866440E-2
7.006062750E0,-4.626757849E-3,-6.287986077E-3,1.953730166E-2,2.103929213E-2
7.016024750E0,4.176498262E-3,-6.298730336E-4,2.987050116E-2,3.016764355E-2
7.025986750E0,7.369114553E-3,2.074208390E-2,2.298540473E-2,3.182556715E-2
7.035948750E0,8.811623796E-3,6.829547882E-3,5.175955296E-3,1.229137712E-2
7.045910750E0,2.376148556E-2,2.702387558E-2,8.473200202E-3,3.696881347E-2
7.055872750E0,5.193145196E-3,2.781122144E-2,4.589830399E-2,5.391741003E-2
7.065834750E0,5.231704842E-3,2.567537975E-2,7.314282060E-2,7.769471067E-2
7.075796750E0,6.175113117E-3,2.463998403E-2,7.014846146E-2,7.460608206E-2
7.085758750E0,1.296270837E-2,5.022045616E-3,1.700487256E-2,2.196402607E-2
7.095720583E0,1.747218615E-2,1.473438045E-2,-5.151981711E-3,2.342908815E-2
7.105682583E0,1.789014672E-2,3.416180927E-3,-1.114128470E-2,2.135078141E-2
7.115644583E0,2.377724564E-3,-2.513334285E-3,1.805093944E-2,1.837952225E-2
7.125606583E0,-4.848006440E-3,3.251490444E-3,9.881794453E-4,5.920460722E-3
7.135568583E0,-7.328594034E-3,-1.277391868E-2,1.086763501E-2,1.830264406E-2
7.145530583E0,-1.254669725E-3,-7.678855956E-4,2.134526074E-2,2.139588747E-2
7.155492583E0,-2.231560161E-3,-1.161792414E-2,2.793390334E-2,3.033577060E-2
7.165454583E0,-1.446163753E-3,9.371076711E-4,2.763511062E-2,2.768878652E-2
7.175416583E0,1.835448988E-3,-3.490093388E-3,1.910519242E-2,1.950789590E-2
7.185378583E0,2.070674936E-3,6.496823039E-3,1.266974688E-2,1.438815103E-2
7.195340583E0,4.064543496E-3,1.162174311E-2,-1.248380542E-3,1.237513154E-2
7.205302583E0,5.821553000E-3,1.958148468E-2,-2.324911416E-2,3.094909257E-2
7.215264583E0,1.739112912E-2,1.079882059E-2,6.391591430E-3,2.144570678E-2
7.225227583E0,1.876064867E-2,-9.550513141E-4,7.142373919E-3,2.009695416E-2
7.235189583E0,1.078156103E-2,5.127953310E-3,3.184218228E-2,3.400680131E-2
7.245151583E0,1.034385011E-3,1.510153078E-3,3.154338956E-2,3.159645454E-2
7.255113583E0,-6.092304209E-3,1.170066224E-2,7.293816805E-3,1.507386583E-2
7.265075583E0,-9.136239054E-3,1.802133791E-2,1.013673306E-2,2.260515077E-2
7.275037583E0,-3.052561772E-3,-1.734868884E-3,2.839875698E-2,2.861498386E-2
7.284999583E0,7.584961321E-3,2.854683772E-3,4.366876066E-2,4.441442913E-2
7.294961583E0,1.466455076E-2,-7.123571467E-3,3.199187100E-2,3.590646362E-2
7.304923583E0,1.793670061E-2,1.769933905E-3,1.154240370E-3,1.806073546E-2
7.314885583E0,1.386848661E-2,-3.576504271E-3,-8.576695919E-3,1.669389160E-2
7.324847583E0,4.774778058E-3,2.525613438E-3,-4.384827018E-3,6.957293778E-3
7.334809583E0,-6.722817924E-3,8.242180366E-3,3.274148405E-2,3.442578388E-2
7.344771583E0,6.871029994E-3,1.162238264E-2,2.466004729E-2,2.811420929E-2
7.354733583E0,4.946770709E-3,4.602727164E-3,3.259296477E-2,3.328598790E-2
7.364695583E0,-7.569851065E-3,8.362651281E-3,7.295570970E-3,1.343361222E-2
7.374657583E0,9.558684396E-3,1.666748822E-3,-1.844855011E-2,2.084455564E-2
7.384619583E0,-5.880708093E-3,-6.384117957E-3,-1.634998441E-2,1.851112314E-2
7.394581583E0,1.256389172E-2,-9.004109111E-3,5.834702611E-2,6.035976153E-2
7.404543583E0,4.734991867E-3,-7.972349636E-3,2.421858251E-2,2.593295675E-2
7.414505583E0,1.734806186E-2,-1.394140664E-3,3.470088601E-2,3.882074663E-2
7.424467583E0,2.729756639E-3,-1.987633053E-3,-1.903736472E-2,1.933451608E-2
7.434429583E0,6.931763379E-3,1.889622755E-2,1.793750346E-2,2.696054134E-2
7.444391583E0,-1.284762329E-3,3.760516148E-2,4.024112284E-2,5.509216597E-2
7.454353583E0,2.763880624E-3,3.234345311E-2,2.302399635E-2,3.979751755E-2
7.464315583E0,-6.955807769E-3,2.940290663E-2,1.883095801E-2,3.560223532E-2
7.474277583E0,-2.383346799E-3,2.560208855E-2,1.343982518E-2,2.901337934E-2
7.484239583E0,6.495414911E-3,7.813890092E-3,2.331869602E-2,2.543636919E-2
7.494201583E0,-8.183825839E-3,-6.315997895E-3,8.201889396E-3,1.319612915E-2
7.504163583E0,1.590547382E-2,-3.569092926E-2,1.778255224E-2,4.293070804E-2
7.514125583E0,1.055021457E-2,-3.538075274E-2,3.155391455E-2,4.856700747E-2
7.524087583E0,6.873371165E-3,-1.851721834E-2,1.269430518E-2,2.347926725E-2
7.534049583E0,3.077322218E-3,-1.372317759E-2,8.356840611E-3,1.635947127E-2
7.544011583E0,-1.800443352E-3,-9.586857241E-3,-1.670549512E-3,9.896472285E-3
7.553973583E0,6.763197973E-3,9.441444296E-3,1.599622786E-2,1.976767622E-2
7.563936583E0,4.979051451E-3,1.800657369E-2,2.243225813E-2,2.919304462E-2
7.573898583E0,2.448373090E-3,1.553665498E-2,7.315451503E-3,1.734641201E-2
7.583860583E0,1.825603281E-2,2.687122671E-2,2.198611557E-2,3.922671076E-2
7.593822583E0,1.314583585E-2,2.021612685E-2,2.827479601E-2,3.716138957E-2
7.603784583E0,1.369910465E-2,6.071218830E-3,4.953234851E-2,5.174919048E-2
7.613746583E0,1.473290266E-2,2.433985742E-2,1.450518787E-2,3.193567840E-2
7.623708583E0,-8.914863698E-3,2.511839591E-2,-2.859288454E-3,2.680641972E-2
7.633670583E0,3.826497865E-3,1.038735934E-2,3.516340077E-2,3.686467243E-2
7.643632583E0,-1.986358543E-3,3.100796733E-3,7.722417712E-2,7.731192724E-2
7.653594583E0,-9.492345907E-3,2.192797232E-3,4.054283917E-2,4.169693992E-2
7.663556583E0,-7.568555998E-3,7.295077611E-3,-8.110088110E-3,1.327684926E-2
7.673518583E0,1.412317854E-2,-1.565464083E-2,-1.963904321E-2,2.881360737E-2
7.683480583E0,1.670936547E-2,-1.619263949E-2,6.854106188E-3,2.425661229E-2
7.693442583E0,2.549282328E-2,-1.188885123E-2,-6.766397953E-3,2.893117632E-2
7.703404583E0,2.181827764E-2,-1.785469227E-2,1.045131326E-2,3.006754436E-2
7.713366583E0,3.652290810E-3,-1.606383629E-2,1.958232522E-2,2.559010601E-2
7.723328583E0,-1.025832316E-3,-5.055594016E-3,4.016452432E-3,6.537832434E-3
7.733290583E0,1.769456992E-2,-2.991599981E-3,-2.714277506E-3,1.814978726E-2
7.743252583E0,-7.461975646E-3,1.001628041E-2,5.222557604E-2,5.369839613E-2
7.753214583E0,-1.372285897E-2,2.621661264E-2,7.886899889E-2,8.423744192E-2
7.763176583E0,2.249602019E-3,3.865212372E-2,3.545517683E-2,5.249873276E-2
7.773138583E0,6.593901665E-3,3.350562377E-2,-2.397358418E-2,4.172336398E-2
7.783100583E0,7.411398373E-3,1.545521423E-2,-2.232466936E-2,2.814575163E-2
7.793062583E0,1.206678131E-2,-7.879232727E-3,-9.298242331E-3,1.715070932E-2
7.803024583E0,1.592447613E-2,-2.283394357E-2,2.737490952E-2,3.904309914E-2
7.812986583E0,2.349501698E-2,-2.228852626E-2,4.728526354E-2,5.731221836E-2
7.822948583E0,1.035154400E-2,-2.402947990E-2,2.468051255E-2,3.596801450E-2
7.832910583E0,-4.820087127E-3,-9.775101040E-3,4.026977420E-3,1.161905277E-2
7.842872583E0,-3.878317672E-3,8.763441369E-3,-1.542787850E-2,1.816201221E-2
7.852834583E0,1.351234436E-3,1.546040364E-3,2.768773556E-2,2.776376732E-2
7.862796583E0,4.299028264E-4,-5.936860777E-3,4.056096554E-2,4.099540289E-2
7.872758583E0,-9.968474857E-5,2.261410654E-4,5.957026362E-2,5.957077627E-2
7.882720583E0,9.511546930E-3,-3.946505114E-3,4.819333613E-2,4.928125480E-2
7.892682583E0,1.375214073E-2,1.541417409E-2,1.450811148E-2,2.524288882E-2
7.902645583E0,2.386532389E-2,2.985727184E-2,-3.848344982E-2,5.424007997E-2
7.912607583E0,1.016756912E-2,2.235246191E-2,-1.183885753E-2,2.726115483E-2
7.922569583E0,5.666118704E-3,2.053432502E-3,5.028488517E-2,5.064475454E-2
7.932531583E0,2.879102749E-4,9.090355542E-3,9.533709705E-2,9.576993020E-2
7.942493583E0,-5.301109693E-3,5.314918030E-3,3.755023420E-2,3.829321358E-2
7.952455583E0,-5.580501534E-3,6.709880959E-3,-3.579899311E-2,3.684742064E-2
7.962417583E0,-8.973400950E-3,3.990066871E-3,-6.079642475E-2,6.158447710E-2
7.972379583E0,-8.343011717E-3,-1.497791698E-2,2.093654037E-2,2.706071995E-2
7.982341583E0,8.708731073E-4,-3.101492917E-2,8.829295635E-4,3.103971353E-2
7.992303583E0,4.459289939E-3,-3.097789072E-2,4.863597035E-2,5.783573802E-2
8.002265583E0,6.194733266E-3,-2.052829508E-2,3.561422110E-2,4.157112415E-2
8.012227583E0,-2.073640799E-3,-1.234546395E-2,2.683871984E-3,1.280287605E-2
8.022189583E0,-3.647558220E-3,1.215818860E-3,-2.230829716E-2,2.263720430E-2
8.032151583E0,1.821457012E-2,2.496280516E-2,8.993017673E-4,3.091473677E-2
8.042113583E0,1.594777249E-2,2.246595271E-2,5.942993045E-2,6.550547391E-2
8.052075583E0,2.143172416E-3,1.063657863E-2,5.883176029E-2,5.982395851E-2
8.062037583E0,1.440877276E-2,1.184614828E-2,2.799529910E-2,3.364046274E-2
8.071999583E0,1.613540872E-2,1.860035844E-2,1.122957766E-2,2.706341004E-2
8.081961583E0,1.834534218E-2,2.377821408E-2,3.607615113E-2,4.694085348E-2
8.091923500E0,1.753498205E-2,-5.480138417E-3,4.400731444E-2,4.768806179E-2
8.101885500E0,1.289386426E-3,8.145975396E-3,1.675987422E-2,1.867920813E-2
8.111847500E0,-3.696671405E-3,-1.539948296E-2,1.788078547E-3,1.593758701E-2
8.121809500E0,-7.441178060E-3,-1.298821913E-2,1.975072503E-2,2.478217316E-2
8.131771500E0,5.768851542E-3,-2.234758314E-2,7.623599768E-3,2.430665328E-2
8.141733500E0,-8.228575311E-3,-2.907235622E-3,1.486946940E-3,8.852823381E-3
8.151695500E0,-3.702462661E-3,-1.492848974E-3,-1.692242682E-2,1.738693065E-2
8.161657500E0,-3.843220674E-3,-3.170250691E-3,1.705749750E-2,1.777017320E-2
8.171619500E0,-3.053087108E-3,2.997264471E-3,1.451220453E-2,1.512973944E-2
8.181581500E0,-3.736964660E-3,3.551361244E-3,4.933295846E-3,7.135438281E-3
8.191543500E0,-4.411660256E-3,1.384991599E-2,-1.886662602E-2,2.381664327E-2
8.201505500E0,2.155119237E-3,4.078707006E-3,1.212010860E-2,1.296832381E-2
8.211467500E0,1.820765852E-2,9.576606341E-3,4.340622067E-2,4.803467717E-2
8.221429500E0,1.015864413E-2,-2.987433840E-3,3.023361325E-2,3.203426574E-2
8.231392500E0,1.457230979E-2,3.078559041E-3,2.574061275E-2,2.973901281E-2
8.241354500E0,1.667413943E-2,1.192797275E-2,1.705808222E-2,2.666986368E-2
8.251316500E0,1.861785441E-2,1.154384723E-2,1.017415524E-2,2.415364044E-2
8.261278500E0,1.609208451E-2,8.573973309E-3,1.975364864E-2,2.688261216E-2
8.271240500E0,1.608707897E-2,1.305432921E-2,8.527579308E-3,2.240377714E-2
8.281202500E0,3.276323980E-3,1.597367954E-2,4.729520380E-2,5.002728295E-2
8.291164500E0,5.761462580E-3,1.147086667E-2,1.585706413E-2,2.040151259E-2
8.301126500E0,-4.642246119E-3,1.355377279E-2,-9.140952229E-3,1.699447597E-2
8.311088500E0,-1.761628804E-2,-4.416146167E-3,-1.206865311E-3,1.820144156E-2
8.321050500E0,-1.354464109E-3,-1.189489944E-2,3.307126701E-2,3.517146439E-2
8.331012500E0,-5.148023420E-3,-8.869732786E-3,2.827713490E-2,3.007940596E-2
8.340974500E0,8.224611310E-3,-5.859092809E-3,2.230712771E-3,1.034162846E-2
8.350936500E0,-1.042691027E-3,-1.356590576E-3,-3.564053357E-2,3.568158034E-2
8.360898500E0,-3.246447220E-3,4.369496349E-3,1.480748892E-2,1.577636352E-2
8.370860500E0,-4.435471671E-3,-5.998877808E-5,5.674722791E-3,7.202741586E-3
8.380822500E0,4.841738956E-3,-4.706003610E-3,2.303861439E-2,2.400763752E-2
8.390784500E0,1.701023555E-3,4.665018283E-3,-1.767496347E-2,1.835919962E-2
8.400746500E0,8.429791478E-3,3.461149670E-3,3.187258780E-2,3.314970278E-2
8.410708500E0,1.604845537E-2,5.665330701E-3,4.758697987E-2,5.053879247E-2
8.420670500E0,1.782525976E-3,1.281245548E-2,3.036985338E-2,3.301006526E-2
8.430632500E0,1.607534800E-2,2.038083561E-2,-5.407505035E-3,2.651483328E-2
8.440594500E0,8.659861141E-3,2.389755210E-2,1.375031233E-2,2.889908788E-2
8.450556500E0,1.498314293E-2,1.956887662E-2,1.809128523E-2,3.057335614E-2
8.460518500E0,1.278406679E-2,-1.674825288E-3,4.608249128E-2,4.785220377E-2
8.470480500E0,2.107925811E-3,-3.882149197E-3,1.389824688E-2,1.458340495E-2
8.480442500E0,-1.050586595E-2,7.371511683E-3,1.569392681E-2,2.027342454E-2
8.490404500E0,-4.277722472E-3,-5.888986699E-3,1.359711528E-2,1.542273056E-2
8.500366500E0,8.326240943E-3,5.571281891E-3,8.655048609E-3,1.323915921E-2
8.510328500E0,-9.534586330E-3,2.478561625E-3,2.227555275E-2,2.435676199E-2
8.520290500E0,1.667157670E-3,-2.080512419E-4,1.823337257E-2,1.831061373E-2
8.530252500E0,-9.349387195E-3,-3.089029212E-3,-5.416275859E-3,1.123784617E-2
8.540214500E0,3.552405064E-3,-1.205366962E-2,1.917886734E-3,1.271175922E-2
8.550176500E0,-5.258359923E-4,-1.079933222E-2,2.963953614E-3,1.121102587E-2
8.560138500E0,7.785483131E-3,-1.592702972E-2,2.212527931E-2,2.835157857E-2
8.570101500E0,5.247076624E-3,6.993946005E-3,4.023702979E-2,4.117603259E-2
8.580063500E0,2.234949719E-3,2.601645514E-4,1.853216529E-2,1.866825745E-2
8.590025500E0,8.978673723E-4,5.379310492E-3,2.691414893E-2,2.746114636E-2
8.599987500E0,1.003060609E-2,1.051720407E-2,1.568574071E-2,2.138380466E-2
8.609949500E0,8.322010848E-3,1.535553748E-2,1.059515476E-2,2.042806159E-2
8.619911500E0,8.125809354E-3,1.036080932E-2,2.705857515E-2,3.009221887E-2
8.629873500E0,8.720649343E-3,-3.818560727E-3,2.720709443E-2,2.882459225E-2
8.639835500E0,2.862566093E-3,-7.241593860E-3,2.256615937E-2,2.387187707E-2
8.649797500E0,-6.793831901E-3,-6.639915369E-3,1.074075043E-2,1.433904975E-2
8.659759500E0,-6.765596245E-3,4.431001749E-3,1.128512621E-4,8.088251013E-3
8.669721500E0,3.353599731E-3,-1.473807150E-2,7.747560740E-3,1.698476024E-2
8.679683500E0,-4.938706805E-3,-2.481518123E-2,3.663865328E-2,4.452611547E-2
8.689645500E0,-8.539858460E-3,-1.220454605E-2,8.197211623E-3,1.700218825E-2
8.699607500E0,-7.086416523E-3,1.098565741E-2,-1.066356719E-2,1.687049593E-2
8.709569500E0,1.938269762E-3,2.973053344E-3,-1.185873806E-2,1.237843303E-2
8.719531500E0,2.159417854E-3,1.611092465E-2,3.185095310E-2,3.575902952E-2
8.729493500E0,8.245078849E-3,-7.368222624E-4,2.586165011E-2,2.715417424E-2
8.739455500E0,1.241996570E-3,1.687415075E-2,1.463616550E-2,2.237178713E-2
8.749417500E0,1.366267718E-2,3.776387684E-4,-2.338418484E-2,2.708563197E-2
8.759379500E0,1.681555297E-2,-7.838302217E-3,-2.861919701E-2,3.410660113E-2
8.769341500E0,1.413036764E-2,-9.997624140E-3,8.355086446E-3,1.922049031E-2
8.779303500E0,2.174502528E-2,-2.585346401E-2,5.161921978E-2,6.169109803E-2
8.789265500E0,5.124481525E-3,-8.100220934E-5,2.497813582E-2,2.549851254E-2
8.799227500E0,1.454654093E-2,-4.505389296E-3,9.412263036E-3,1.790226470E-2
8.809189500E0,-6.685158201E-3,-5.323213767E-3,6.271138787E-3,1.059977012E-2
8.819151500E0,6.568627304E-3,5.618023071E-3,4.055336416E-2,4.146425439E-2
8.829113500E0,1.934345732E-3,2.392443102E-3,4.205259025E-2,4.216498339E-2
8.839075500E0,-4.285865177E-3,1.727720663E-2,4.714025259E-2,5.038922428E-2
8.849037500E0,-5.383917459E-3,1.368213745E-2,4.384242296E-2,4.624224804E-2
8.858999500E0,-8.557171701E-3,1.316866055E-2,7.166932225E-3,1.726278441E-2
8.868961500E0,-6.874754168E-3,1.857855929E-2,-1.633536637E-2,2.567624008E-2
8.878923500E0,-1.278690132E-4,1.614156771E-2,2.288424790E-2,2.800455964E-2
8.888885500E0,2.047788568E-3,5.441345796E-3,4.638713121E-2,4.675005481E-2
8.898848500E0,-3.736841320E-3,8.014248591E-3,4.923063219E-2,5.001846968E-2
8.908810500E0,5.671611889E-3,-8.898329325E-3,2.976817489E-3,1.096398142E-2
8.918772500E0,4.460945888E-3,5.876561366E-3,-2.860633314E-2,2.954244924E-2
8.928734500E0,-6.897446390E-3,-1.116779817E-2,-4.357345104E-3,1.383043525E-2
8.938696500E0,1.304013829E-2,-1.201557135E-2,2.423553944E-2,3.002966089E-2
8.948658500E0,8.889738943E-3,-1.387946270E-2,3.396706045E-2,3.775484259E-2
8.958620500E0,1.369897332E-2,-1.448282227E-4,-3.104871511E-4,1.370325682E-2
8.968582500E0,2.083528760E-2,-1.352486562E-2,4.331617355E-3,2.521495803E-2
8.978544500E0,1.851705161E-2,7.666083444E-3,-1.318020880E-2,2.398682846E-2
8.988506500E0,5.264118060E-3,1.678461526E-3,1.496536374E-2,1.595275161E-2
8.998468500E0,2.461860515E-4,1.299984047E-2,3.457575560E-2,3.693967156E-2
9.008430500E0,3.928931491E-3,1.662325038E-2,2.409637570E-2,2.953649061E-2
9.018392500E0,1.024841031E-3,1.453559339E-2,3.098205686E-2,3.423772220E-2
9.028354500E0,-8.317435859E-3,1.721566468E-2,2.454602659E-2,3.111376337E-2
9.038316500E0,-6.567955788E-3,6.728537232E-3,2.873789549E-2,3.023702852E-2
9.048278500E0,-9.706732014E-3,8.527159039E-3,3.248011351E-2,3.495555551E-2
9.058240500E0,-2.761550874E-3,-5.641740840E-3,2.080263913E-2,2.173028296E-2
9.068202500E0,8.042107376E-3,-5.345086008E-3,1.361816525E-2,1.669430623E-2
9.078164500E0,-8.172947962E-3,4.095042665E-3,-3.028857708E-4,9.146485260E-3
9.088126500E0,8.179304525E-3,-4.570805021E-3,1.421633542E-2,1.702637582E-2
9.098088375E0,1.657787050E-2,-1.149604624E-2,1.406781614E-2,2.459447744E-2
9.108050375E0,2.195811746E-2,-1.615112426E-2,1.287030637E-2,3.014402965E-2
9.118012375E0,-6.166318310E-3,3.931576442E-3,-2.095057368E-3,7.607236042E-3
9.127974375E0,5.595184669E-3,-5.504038911E-3,-3.138785362E-3,8.452958616E-3
9.137936375E0,1.379318430E-2,9.741095826E-5,7.560449839E-4,1.381423273E-2
9.147898375E0,-8.939147915E-3,2.636125814E-3,1.377896369E-2,1.663482386E-2
9.157860375E0,6.173266447E-4,6.563225482E-3,4.685900152E-2,4.732042946E-2
9.167822375E0,2.521348854E-2,1.728568509E-2,4.775888801E-2,5.670472905E-2
9.177784375E0,6.566747515E-3,1.443765253E-2,2.695215583E-2,3.127277869E-2
9.187746375E0,1.663174254E-3,1.610783659E-2,1.527526617E-2,2.226122873E-2
9.197708375E0,-1.641847906E-3,1.023381511E-2,1.812052131E-2,2.087534260E-2
9.207670375E0,2.891729081E-3,1.120012231E-2,1.916658819E-2,2.238666879E-2
9.217632375E0,1.163943322E-2,6.232930887E-3,3.338760138E-2,3.590345051E-2
9.227594375E0,5.479076325E-3,5.688792653E-3,3.907401860E-2,3.986428939E-2
9.237557375E0,3.986636200E-3,1.757892296E-3,2.200658083E-2,2.243374809E-2
9.247519375E0,-2.171301863E-3,-6.327783689E-4,-3.141124249E-3,3.870610002E-3
9.257481375E0,-1.204617787E-4,-6.776996031E-3,1.212770998E-2,1.389329103E-2
9.267443375E0,-1.367908136E-3,-3.604022730E-3,1.706626832E-2,1.749621865E-2
9.277405375E0,3.130535306E-3,-9.180603661E-3,7.472741604E-4,9.728419890E-3
9.287367375E0,1.436086899E-2,-1.551010497E-3,8.980153799E-3,1.700833190E-2
9.297329375E0,9.744743484E-3,-1.339206073E-2,2.035708129E-2,2.624343871E-2
9.307291375E0,7.790430423E-3,7.553031184E-3,3.293151855E-3,1.133948568E-2
9.317253375E0,8.959983189E-3,6.777050849E-3,-1.017415524E-2,1.515662072E-2
9.327215375E0,4.463385274E-3,-2.871238701E-3,6.143669486E-3,8.118527855E-3
9.337177375E0,1.691654077E-2,3.719340786E-3,1.542846322E-2,2.319569626E-2
9.347139375E0,4.507673364E-3,1.128967607E-2,2.471091807E-2,2.753916079E-2
9.357101375E0,-1.016108808E-2,1.940857155E-2,3.833142221E-2,4.415017881E-2
9.367063375E0,-2.199231454E-3,2.043806523E-2,1.438181162E-2,2.508759922E-2
9.377025375E0,-8.783452094E-3,2.070301719E-2,1.587519050E-2,2.752790629E-2
9.386987375E0,-4.771293711E-3,1.919909505E-2,9.884133339E-3,2.211484991E-2
9.396949375E0,-2.419050217E-3,9.870648198E-4,-1.376785398E-2,1.401356143E-2
9.406911375E0,5.631512781E-3,-1.926105727E-2,1.123133183E-2,2.299663188E-2
9.416873375E0,-3.709512439E-3,-2.757181451E-2,3.323732793E-2,4.334380470E-2
9.426835375E0,1.647016296E-2,-2.015886068E-2,1.691950321E-2,3.104698892E-2
9.436797375E0,1.574159076E-2,-6.811458059E-4,8.536934853E-3,1.792040445E-2
9.446759375E0,1.744364443E-2,8.257474490E-3,7.041217089E-3,2.054374245E-2
9.456721375E0,6.757028704E-3,9.522537868E-3,1.198328376E-2,1.673126576E-2
9.466683375E0,9.934296054E-3,1.096815230E-2,3.114460945E-2,3.448155015E-2
9.476645375E0,3.584651544E-3,1.260391088E-2,1.333223641E-2,1.869376430E-2
9.486607375E0,8.677928124E-3,1.229404500E-2,2.291231453E-2,2.741211660E-2
9.496569375E0,1.402941409E-2,1.066459045E-3,1.333223641E-2,1.938324850E-2
9.506531375E0,1.638483244E-2,1.667797666E-2,1.658855081E-3,2.343863136E-2
9.516493375E0,1.580575709E-2,-3.475658074E-3,2.142068982E-2,2.684675230E-2
9.526455375E0,-1.400186594E-3,1.937986538E-3,2.336605847E-2,2.348806085E-2
9.536417375E0,7.563896498E-3,-7.802140843E-3,3.608959973E-2,3.769011993E-2
9.546379375E0,-5.483379511E-3,5.362645928E-3,1.767847180E-2,1.927054196E-2
9.556341375E0,-2.588105556E-3,1.055108137E-2,1.767964125E-2,2.075074271E-2
9.566303375E0,6.590239161E-3,2.588105556E-3,1.963495016E-3,7.347438686E-3
9.576266375E0,-8.037089277E-4,3.749855943E-3,1.199380875E-2,1.259201397E-2
9.586228375E0,-1.027386853E-2,8.829953447E-3,4.058435440E-2,4.278563164E-2
9.596190375E0,7.368323123E-3,1.862922907E-3,8.249836564E-3,1.121706159E-2
9.606152375E0,1.697780863E-2,-6.812371686E-4,7.651081681E-3,1.863462157E-2
9.616114375E0,1.056529513E-2,-7.583838701E-4,1.483847916E-2,1.823132116E-2
9.626076375E0,1.833750783E-3,-5.601559505E-3,2.427003801E-2,2.497548510E-2
9.636038375E0,2.634743953E-3,-7.203586958E-3,4.118778706E-2,4.189591082E-2
9.646000375E0,-3.505979085E-3,1.203411799E-2,1.858654439E-2,2.241810691E-2
9.655962375E0,-5.959210389E-3,1.246264581E-2,1.095300436E-2,1.762946492E-2
9.665924375E0,-6.850728050E-3,1.566395983E-2,4.433183491E-2,4.751424733E-2
9.675886375E0,-5.529794069E-3,1.691310782E-2,4.058844745E-2,4.431764778E-2
9.685848375E0,1.376348227E-2,1.018513704E-2,2.681650043E-2,3.181658617E-2
9.695810375E0,-3.990473435E-4,8.622395564E-3,9.450854659E-3,1.279935927E-2
9.705772375E0,-1.282408596E-3,1.397062445E-2,4.312789321E-2,4.535237692E-2
9.715734375E0,1.219190145E-4,1.634156076E-2,3.953185558E-2,4.277650147E-2
9.725696375E0,-2.571856692E-3,1.577089079E-2,1.602604866E-2,2.263116609E-2
9.735658375E0,-3.798095472E-3,2.302624388E-2,2.694747806E-2,3.564828200E-2
9.745620375E0,-3.499387263E-3,1.493694993E-2,-4.341557622E-3,1.594387992E-2
9.755582375E0,-8.071055661E-3,1.272290172E-2,-1.018409550E-2,1.818598276E-2
9.765544375E0,-5.316928010E-3,-1.741266103E-2,-1.153363287E-2,2.155215013E-2
9.775506375E0,-1.406495192E-3,-3.166009633E-2,2.289126456E-2,3.909411620E-2
9.785468375E0,1.616589761E-2,-3.424511382E-2,3.171997547E-2,4.939859219E-2
9.795430375E0,1.658168033E-2,-3.254353752E-2,-9.133350849E-4,3.653584730E-2
9.805392375E0,1.495516994E-2,-3.388649678E-2,-2.725854993E-2,4.598891514E-2
9.815354375E0,1.057003229E-2,-2.607136415E-2,-1.273582041E-2,3.088110641E-2
9.825316375E0,1.627849078E-2,-2.183368597E-3,-1.353630424E-3,1.647994768E-2
9.835278375E0,1.520113901E-2,-4.953761101E-3,2.155459106E-2,2.683681747E-2
9.845240375E0,1.543690285E-2,4.411687665E-3,3.472895265E-2,3.826043792E-2
9.855202375E0,-9.262604008E-3,2.063917290E-2,2.125521362E-2,3.104118872E-2
9.865164375E0,-9.833219165E-3,3.842457566E-2,2.963836670E-2,4.951336178E-2
9.875126375E0,1.157598179E-2,3.823307935E-2,1.511973023E-2,4.271273760E-2
9.885088375E0,1.503568336E-2,2.653685734E-2,3.502891481E-2,4.644675924E-2
9.895050375E0,-1.456201093E-3,2.613254065E-2,4.835004151E-2,5.497960273E-2
9.905013375E0,-2.105897558E-3,1.520051317E-2,4.101178586E-2,4.378877693E-2
9.914975375E0,-9.474446804E-3,-7.424282804E-3,9.723919630E-3,1.547384019E-2
9.924937375E0,-1.141460321E-2,8.763715457E-3,1.935428381E-3,1.452039111E-2
9.934899375E0,-3.883885089E-3,7.911173142E-3,-4.502356052E-3,9.896586982E-3
9.944861375E0,-2.835038498E-3,-7.759912983E-3,2.738017201E-2,2.859943203E-2
9.954823375E0,-5.127236112E-3,1.045244616E-3,2.992137194E-2,3.037547670E-2
9.964785375E0,8.878905606E-3,-2.343357554E-2,-9.598204494E-3,2.683454782E-2
9.974747375E0,9.231492709E-3,-1.136528788E-2,-1.693119764E-2,2.238427305E-2
9.984709375E0,2.234734559E-2,-2.203517737E-2,-5.554270148E-3,3.187166161E-2
9.994671375E0,1.315099785E-2,-2.616552260E-2,2.543363392E-2,3.878727951E-2
1.000463337E1,8.553791279E-3,-9.308365323E-3,7.472741604E-3,1.468519245E-2
1.001459538E1,5.473991989E-3,5.269474201E-3,1.585764885E-2,1.758399766E-2
1.002455737E1,-1.095742175E-2,1.911244662E-2,2.409228265E-2,3.264642080E-2
1.003451937E1,-5.953379162E-3,2.873937557E-2,2.858586788E-2,4.097006558E-2
1.004448138E1,7.680692347E-3,2.328001304E-2,1.272061765E-2,2.761822144E-2
1.005444337E1,-7.270261205E-3,1.298403472E-2,1.945953369E-3,1.500761773E-2
1.006440538E1,3.017117595E-3,2.401378378E-3,8.984246850E-3,9.776825055E-3
1.007436737E1,1.514359647E-2,8.586544823E-3,7.789660692E-3,1.907186618E-2
1.008432938E1,1.018193934E-2,-2.803361664E-2,4.207071662E-2,5.157034756E-2
1.009429196E1,1.242216297E-2,-2.578300506E-2,7.096063972E-2,7.651461214E-2
1.010425396E1,-4.260987102E-3,-1.608812051E-2,2.141425788E-2,2.712110015E-2
1.011421596E1,-9.464221029E-4,-2.638190612E-4,-1.929990470E-2,1.932489681E-2
1.012417796E1,-9.580950639E-3,-5.767949335E-3,3.122413158E-4,1.118755332E-2
1.013413996E1,4.543951226E-3,-8.531379998E-3,6.767391980E-2,6.836074428E-2
1.014410196E1,5.279791339E-3,-5.337411538E-4,5.315235972E-2,5.341661184E-2
1.015406396E1,-1.015295908E-3,1.670703001E-2,-9.721580744E-3,1.935626022E-2
1.016402596E1,1.508169136E-2,6.261143703E-3,-1.451278925E-2,2.184674773E-2
1.017398796E1,1.207146936E-2,1.456965342E-2,-1.337842941E-3,1.896799929E-2
1.018394996E1,1.354769717E-2,7.043647338E-3,4.372313976E-2,4.631269823E-2
1.019391196E1,5.143950926E-3,1.323681716E-3,5.390314221E-2,5.416420502E-2
1.020387396E1,-7.957293056E-3,1.875362858E-2,4.327348888E-2,4.782898637E-2
1.021383596E1,-6.472015770E-3,7.832765635E-3,-1.840235710E-2,2.102108352E-2
1.022379796E1,-7.560477247E-3,1.713837180E-3,1.018701911E-2,1.280130511E-2
1.023376096E1,-1.831384487E-3,1.540814415E-3,5.194724858E-2,5.200235296E-2
1.024372296E1,-9.687317431E-3,-3.097217141E-2,-2.663874507E-2,4.198502423E-2
1.025368496E1,5.719748635E-3,-1.192762557E-2,6.272425175E-2,6.410394320E-2
1.026364696E1,5.053775897E-3,-3.744045272E-2,-4.400556028E-2,5.799842659E-2
1.027360896E1,-8.017562774E-3,-1.285627306E-2,1.651838422E-3,1.524118236E-2
1.028357096E1,1.683289133E-2,-1.011360001E-2,-1.750480950E-2,2.630683355E-2
1.029353296E1,1.965110538E-2,-7.184492145E-3,3.294906020E-2,3.903105735E-2
1.030349496E1,1.756734273E-3,1.159625290E-2,2.127626359E-2,2.429482639E-2
1.031345696E1,9.489660985E-3,1.648362983E-2,1.158801198E-1,1.174306854E-1
1.032341896E1,-2.583117150E-3,3.152871670E-2,1.409062028E-2,3.463059415E-2
1.033338096E1,1.335782940E-2,4.754687162E-2,1.932914078E-2,5.303538715E-2
1.034334296E1,-5.324947375E-3,2.414437769E-2,-2.123474836E-2,3.259172559E-2
1.035330496E1,7.473595846E-3,7.378510069E-3,3.804140031E-2,3.946448002E-2
1.036326696E1,9.190489110E-3,3.195174448E-3,6.078999281E-2,6.156376739E-2
1.037322896E1,1.639718240E-2,-1.706060383E-2,2.441329479E-2,3.399912876E-2
1.038319096E1,-9.573541121E-3,-2.498928208E-2,8.396016955E-3,2.804656858E-2
1.039315296E1,-6.083175929E-3,-1.227096677E-2,-5.148297966E-2,5.327362245E-2
1.040311496E1,-5.889811248E-3,-1.279655837E-2,-1.001744986E-2,1.728557445E-2
1.041307696E1,-2.619657679E-3,-1.491133181E-2,2.051963389E-2,2.550030976E-2
1.042303896E1,-9.487870275E-3,-6.942709778E-3,6.782010019E-2,6.883158353E-2
1.043300096E1,-2.471001358E-3,-1.237546748E-2,2.545526862E-2,2.841177121E-2
1.044296296E1,5.020366826E-3,6.431242861E-3,1.766853154E-2,1.946129427E-2
1.045292496E1,1.164384375E-2,2.834492605E-3,-4.265602291E-2,4.430744560E-2
1.046288696E1,9.190881969E-3,1.106274929E-3,1.347958624E-2,1.635222923E-2
1.047284896E1,9.319548123E-3,3.739732951E-3,1.976826668E-2,2.217259451E-2
1.048281096E1,2.985800045E-2,-4.843029454E-3,5.195251107E-2,6.011670759E-2
1.049277296E1,1.918952252E-2,8.534193970E-3,7.792584300E-3,2.240077256E-2
1.050273496E1,9.733830204E-3,1.781538801E-2,-8.523486257E-3,2.201784091E-2
1.051269696E1,1.808092013E-2,6.284057479E-3,1.153538704E-2,2.234891955E-2
1.052265896E1,1.166633726E-3,7.117980067E-3,2.710476816E-2,2.804808605E-2
1.053262096E1,-9.573991082E-3,8.098539859E-3,5.464515388E-2,5.606550183E-2
1.054258296E1,-4.334314840E-3,7.604669407E-3,2.545292974E-2,2.691596021E-2
1.055254496E1,-3.918520706E-3,9.116302561E-3,1.901573002E-2,2.144900383E-2
1.056250696E1,-6.438883070E-3,2.477757633E-3,-1.197217405E-2,1.381779467E-2
1.057246996E1,-1.003375811E-2,-7.075733934E-3,6.738331318E-3,1.400526406E-2
1.058243196E1,4.228854824E-3,-1.095673196E-2,1.377311647E-2,1.810060567E-2
1.059239396E1,-1.325776207E-3,-8.005477767E-3,9.133935571E-3,1.221777950E-2
1.060235596E1,1.463466943E-2,-1.437885147E-3,2.548216581E-3,1.492429130E-2
1.061231796E1,-8.170042627E-3,3.900330383E-3,1.352460980E-3,9.153760120E-3
1.062227996E1,4.324036532E-3,8.519502841E-3,1.602254033E-2,1.865478542E-2
1.063224196E1,1.168450474E-2,4.200913813E-3,2.200950444E-2,2.527040984E-2
1.064220396E1,1.450907079E-2,4.392940030E-3,3.937222660E-2,4.218984812E-2
1.065216596E1,9.492171176E-3,1.962818932E-3,3.083646119E-2,3.232400517E-2
1.066212796E1,2.722610702E-2,-2.966146320E-3,5.688756108E-3,2.797178710E-2
1.067208996E1,1.031113540E-2,-1.473498344E-3,1.002972901E-2,1.445981240E-2
1.068205196E1,2.331748090E-2,-3.409420084E-3,-1.137224972E-2,2.616595354E-2
1.069201396E1,1.200291990E-2,-1.092219684E-2,1.257911503E-2,2.053286646E-2
1.070197596E1,-2.664548764E-3,-9.385566842E-3,1.856549442E-2,2.097298901E-2
1.071193796E1,-8.469931700E-3,-8.474844731E-3,3.009094119E-2,3.238869367E-2
1.072189996E1,-1.105185428E-2,1.605639936E-2,3.128903568E-2,3.686400951E-2
1.073186196E1,-7.249291171E-3,2.468610395E-2,9.885302782E-3,2.756220531E-2
1.074182396E1,-1.772230080E-2,1.927070517E-2,1.033495367E-2,2.814695882E-2
1.075178596E1,-9.410454053E-4,1.692525906E-2,3.802561283E-2,4.163288594E-2
1.076174796E1,-7.569037937E-3,2.929838765E-3,3.488039553E-2,3.581223650E-2
1.077170996E1,7.643005215E-3,-3.215456977E-3,9.433897734E-3,1.255998084E-2
1.078167196E1,1.983000048E-2,-1.121391809E-2,-1.601610839E-2,2.784773970E-2
1.079163396E1,1.954922221E-2,-6.784962863E-4,-2.391511202E-3,1.970664284E-2
1.080159596E1,2.386932786E-2,1.236868836E-4,1.632191777E-2,2.891651969E-2
1.081155796E1,2.051841420E-2,-6.216832772E-3,3.204098761E-2,3.855229199E-2
1.082151996E1,2.408692423E-2,-1.323583044E-2,2.769942999E-2,3.902083479E-2
1.083148196E1,1.179777856E-2,8.304928299E-3,4.647951722E-3,1.515793087E-2
1.084144396E1,1.569799245E-2,3.169501517E-3,1.078635871E-2,1.930850179E-2
1.085140596E1,3.416416186E-3,6.101770531E-3,1.453033090E-2,1.612557035E-2
1.086136796E1,7.180951838E-3,1.710529849E-3,5.060648203E-2,5.114203755E-2
1.087132996E1,-8.784452516E-3,1.520751156E-3,3.713157356E-2,3.818681769E-2
1.088129196E1,4.300606556E-3,4.784557298E-3,1.123250127E-2,1.294435360E-2
1.089125396E1,-7.012922047E-3,7.412716281E-3,-1.193416715E-3,1.027393215E-2
1.090121596E1,-6.138354458E-3,7.657440528E-3,1.167688966E-2,1.525337808E-2
1.091117896E1,-3.476098899E-3,7.415658161E-3,2.769241333E-2,2.887810599E-2
1.092114096E1,-6.609742823E-3,5.972071979E-3,4.071416259E-2,4.167730053E-2
1.093110296E1,-3.705446797E-3,7.380721048E-3,2.095349729E-2,2.252230956E-2
1.094106496E1,-3.496351736E-3,1.663192984E-2,-4.347404838E-3,1.754267637E-2
1.095102696E1,1.162777305E-2,1.041118674E-2,1.226628900E-2,1.985093854E-2
1.096098896E1,4.287002643E-3,-9.002903122E-3,-1.805620193E-3,1.013365287E-2
1.097095096E1,1.002109980E-2,-1.827335291E-2,2.573710442E-2,3.311701091E-2
1.098091296E1,2.474572727E-2,-1.134953694E-2,7.773288488E-3,2.831231218E-2
1.099087496E1,1.648168380E-2,-1.658456739E-2,-9.591187835E-3,2.527221123E-2
1.100083696E1,1.212269645E-2,-1.373306304E-2,-2.291348398E-2,2.933572119E-2
1.101079896E1,1.634879898E-2,-5.544384699E-3,3.732277751E-3,1.766220051E-2
1.102076096E1,1.233461691E-2,-2.524316087E-3,2.035064936E-2,2.393039647E-2
1.103072296E1,6.502519506E-3,-6.026560720E-3,2.604466796E-2,2.751230494E-2
1.104068496E1,2.863886284E-3,8.150653169E-3,1.990859985E-2,2.170224274E-2
1.105064696E1,-5.870714150E-3,1.381527124E-2,1.571790040E-2,2.173429081E-2
1.106060896E1,-7.935640085E-3,1.337009713E-2,2.829175293E-2,3.228245909E-2
1.107057096E1,-3.993264567E-3,1.759054430E-2,2.948867798E-2,3.456812896E-2
1.108053296E1,7.257383626E-3,2.147991115E-2,3.188369751E-2,3.912322031E-2
1.109049471E1,4.957545802E-3,1.969415322E-3,2.904078126E-2,2.952664616E-2
1.110045671E1,8.319011866E-3,1.868300518E-2,2.754155517E-2,3.430448807E-2
1.111041871E1,-1.026735437E-2,-5.492691658E-3,-1.200433373E-3,1.170595010E-2
1.112038071E1,1.105732463E-2,-2.316063847E-3,2.952843904E-4,1.130114032E-2
1.113034271E1,9.249801803E-3,-3.207435329E-3,-4.195377231E-3,1.065118138E-2
1.114030471E1,1.497192359E-2,-1.373434212E-2,1.840878904E-2,2.741667674E-2
1.115026671E1,1.164676279E-3,-1.450018119E-2,2.110377073E-2,2.563163796E-2
1.116022871E1,5.951465112E-3,-1.797613163E-2,1.646458983E-2,2.509270738E-2
1.117019071E1,6.011394504E-4,-4.499578625E-3,5.536728501E-3,7.159814169E-3
1.118015271E1,1.243182002E-3,1.595741697E-3,9.579493403E-3,9.790739856E-3
1.119011471E1,7.849270315E-4,-2.361288406E-3,-2.992604971E-3,3.891976091E-3
1.120007671E1,4.869504094E-3,-5.022374522E-3,1.063199222E-2,1.272696250E-2
1.121003871E1,3.653454543E-3,5.234098546E-3,1.991503179E-2,2.091296270E-2
1.122000071E1,7.319754688E-5,6.888038311E-3,1.886662602E-2,2.008482032E-2
1.122996271E1,-4.698361116E-3,1.676009350E-2,6.443046927E-3,1.856039291E-2
1.123992471E1,4.779726493E-3,1.508428149E-2,-4.034578800E-3,1.632970176E-2
1.124988771E1,-7.448151321E-3,1.041025484E-2,3.683102667E-2,3.899195930E-2
1.125984971E1,-4.110727364E-3,8.558039647E-3,5.000538826E-2,5.089869327E-2
1.126981171E1,4.843426882E-3,2.245403901E-3,1.542378545E-2,1.632157407E-2
1.127977371E1,3.241287509E-3,-2.174086142E-3,1.317670047E-2,1.374256274E-2
1.128973571E1,4.283905446E-3,-1.748763330E-2,-2.543538809E-3,1.818347475E-2
1.129969771E1,-2.575885789E-3,-1.543107620E-2,1.362401247E-2,2.074528901E-2
1.130965971E1,2.499972484E-3,-4.027434234E-3,9.431558847E-3,1.055577525E-2
1.131962171E1,-9.659952004E-3,-2.448996641E-2,1.017883301E-2,2.822555170E-2
1.132958371E1,5.085131591E-3,-3.145727104E-2,-1.167396605E-2,3.393670502E-2
1.133954571E1,-9.083953297E-3,-2.484593393E-2,1.257911503E-2,2.929287926E-2
1.134950771E1,-5.888598408E-3,-2.480295690E-2,1.108515143E-2,2.779825254E-2
1.135946971E1,-7.471939896E-3,-1.536949771E-2,6.148931980E-3,1.816206789E-2
1.136943171E1,-1.591909030E-3,-8.685216587E-3,-2.827128768E-3,9.271451806E-3
1.137939371E1,2.477291683E-3,-5.419144649E-3,2.716616392E-3,6.548595837E-3
1.138935571E1,2.529649388E-2,1.405840578E-2,2.652413964E-2,3.925660911E-2
1.139931771E1,9.644918265E-3,2.977862678E-2,2.967169583E-2,4.313004283E-2
1.140927971E1,9.842462791E-3,2.570883678E-2,2.279069245E-2,3.573841106E-2
1.141924171E1,9.914896317E-3,3.462408649E-2,4.928735018E-2,6.104404493E-2
1.142920371E1,1.823093775E-2,3.634674931E-2,6.889832675E-2,8.000270437E-2
1.143916571E1,1.673054222E-2,2.713663548E-2,7.084252596E-2,7.768507908E-2
1.144912771E1,1.166281066E-2,2.671009937E-2,2.907469511E-2,4.116780850E-2
1.145908971E1,1.760379646E-3,2.074420352E-2,2.038807154E-2,2.913922403E-2
1.146905171E1,-3.531978638E-3,7.277919687E-3,1.050452292E-2,1.325850632E-2
1.147901371E1,-8.238372824E-3,-5.618552975E-3,2.831455708E-2,3.001921163E-2
1.148897571E1,1.555506914E-2,-1.134186247E-2,1.139622331E-2,2.237122987E-2
1.149893771E1,1.398849500E-2,-1.996542748E-2,-2.825374603E-3,2.454137381E-2
1.150889971E1,-3.843929877E-3,-3.427995957E-2,-4.264023542E-2,5.484597617E-2
1.151886171E1,7.081247675E-3,-4.474024465E-2,-3.709824443E-2,5.855009223E-2
1.152882371E1,5.526950404E-3,-2.075191453E-2,-2.517226338E-3,2.162233951E-2
1.153878571E1,2.368978865E-2,-2.577911301E-2,4.224613309E-2,5.486806462E-2
1.154874771E1,1.291511751E-2,-1.156012807E-2,3.521485627E-2,3.924949584E-2
1.155870971E1,1.683176985E-3,-1.918617636E-6,2.159610629E-2,2.166159956E-2
1.156867271E1,3.244205407E-3,2.220275491E-2,-4.148014784E-3,2.281870332E-2
1.157863471E1,1.167404599E-2,2.716265559E-2,3.117793858E-2,4.296692987E-2
1.158859671E1,1.160782742E-2,2.315866504E-2,3.476988316E-2,4.335908438E-2
1.159855871E1,1.342864695E-2,1.658593783E-2,3.731400669E-2,4.298554394E-2
1.160852071E1,1.676994240E-2,2.219820505E-2,3.357003450E-2,4.359975335E-2
1.161848271E1,4.764353569E-3,4.079748541E-3,1.904613554E-2,2.005239867E-2
1.162844471E1,1.057109210E-3,1.533125326E-2,-3.262161613E-3,1.571007654E-2
1.163840671E1,-6.593498527E-3,8.065174185E-3,-1.767028570E-3,1.056615575E-2
1.164836871E1,-2.245406185E-3,-1.707953420E-2,1.305215478E-2,2.161275276E-2
1.165833071E1,-9.721384314E-3,-1.435992111E-2,3.924709618E-2,4.290742600E-2
1.166829271E1,-1.643562899E-2,-1.235123808E-2,1.813923240E-2,2.741741662E-2
1.167825471E1,-4.753579617E-3,-1.842156155E-2,1.589214742E-2,2.478932833E-2
1.168821671E1,-9.318643631E-3,-1.625069138E-3,-8.657972217E-3,1.282335571E-2
1.169817871E1,-3.307124645E-3,-4.991530459E-3,-1.321470737E-3,6.131780708E-3
1.170814071E1,1.146012355E-2,-1.019094771E-2,7.770949602E-4,1.535557630E-2
1.171810271E1,2.541214084E-2,-6.457738057E-3,3.895181179E-2,4.695447715E-2
1.172806471E1,2.690192688E-2,-2.156946491E-3,3.820044458E-2,4.677221455E-2
1.173802671E1,3.617212313E-2,-1.725586429E-3,-1.119624853E-2,3.790456597E-2
1.174798871E1,3.022797617E-2,2.179116575E-2,1.080740869E-2,3.879929807E-2
1.175795071E1,2.531278842E-2,1.179392533E-2,7.363983393E-3,2.888013476E-2
1.176791271E1,1.418583511E-2,3.244216142E-2,6.050347924E-2,7.010280134E-2
1.177787471E1,1.143395840E-2,2.377814099E-2,5.046965718E-2,5.695016848E-2
1.178783671E1,8.856469200E-3,6.649672911E-3,2.726556659E-2,2.942900470E-2
1.179779871E1,3.709512439E-3,3.752743006E-3,-1.015895247E-2,1.144761451E-2
1.180776071E1,-5.223911600E-3,4.964121636E-3,1.498816788E-2,1.663060229E-2
1.181772271E1,-6.569612880E-3,-1.151923411E-2,1.962500989E-2,2.368530306E-2
1.182768471E1,-1.495728499E-2,-9.915452488E-3,2.755558848E-2,3.288384146E-2
1.183764671E1,-1.264819440E-2,-1.818390878E-2,1.318254769E-2,2.577616969E-2
1.184760871E1,-1.693929695E-2,-1.760998629E-3,3.099024296E-4,1.703340650E-2
1.185757071E1,-1.651028491E-2,-1.782008406E-2,1.509166360E-3,2.433973062E-2
1.186753271E1,-6.419706030E-3,-2.398175200E-2,2.336371958E-2,3.409106111E-2
1.187749471E1,5.581258703E-4,-4.795265011E-3,2.111429572E-3,5.269175064E-3
1.188745671E1,6.693531596E-3,3.884689081E-3,9.895243049E-3,1.256224540E-2
1.189741971E1,2.338444522E-2,-9.808338806E-4,2.306960464E-2,3.286336823E-2
1.190738171E1,3.413742456E-2,1.439178843E-2,1.947824478E-2,4.185557728E-2
1.191734371E1,3.133615145E-2,1.354796212E-2,7.052911520E-3,3.486036755E-2
1.192730571E1,3.669141070E-2,1.777310533E-2,2.366719007E-2,4.714105194E-2
1.193726771E1,3.627933959E-2,1.839024240E-2,2.112189710E-2,4.583149609E-2
1.194722971E1,2.475027257E-2,1.764927227E-3,2.980442762E-2,3.878137267E-2
1.195719171E1,6.198596768E-4,6.536876466E-3,2.576341689E-2,2.658700114E-2
1.196715371E1,-7.589454084E-3,8.496698700E-3,5.704543591E-3,1.274109570E-2
1.197711571E1,-3.976481231E-3,-5.227776244E-3,1.169092298E-2,1.340968782E-2
1.198707771E1,-1.446774285E-2,-2.180633197E-2,3.139954805E-4,2.617117288E-2
1.199703971E1,-2.367158462E-3,-7.437877581E-3,5.702789426E-3,9.666812780E-3
1.200700171E1,-4.391968158E-3,-1.040068002E-2,7.199091911E-3,1.338993852E-2
1.201696371E1,-5.134878606E-3,-1.382283607E-2,-1.271009266E-2,1.946751733E-2
1.202692571E1,6.170370248E-3,-3.060268220E-3,7.497884631E-3,1.018120742E-2
1.203688771E1,6.612321537E-4,-2.017282091E-2,1.124127209E-2,2.310294634E-2
1.204684971E1,2.314893262E-3,-4.656886999E-3,-4.025223255E-3,6.576302121E-3
1.205681171E1,1.262807861E-3,1.614598967E-2,2.965883195E-2,3.379251365E-2
1.206677371E1,1.806587382E-2,8.457906079E-3,2.711529315E-2,3.366230970E-2
1.207673571E1,2.196079211E-2,1.072514568E-2,3.983824968E-2,4.673747188E-2
1.208669771E1,2.487554460E-2,2.339244403E-2,3.923715591E-2,5.201493594E-2
1.209665913E1,1.319872689E-2,1.660616554E-2,7.051157355E-3,2.235374567E-2
1.210662113E1,2.532809625E-2,1.307380775E-2,2.351574719E-2,3.695168839E-2
1.211658312E1,1.204632976E-2,5.902782474E-3,6.001582146E-3,1.469611819E-2
1.212654513E1,1.414770030E-2,-1.203755323E-2,1.647920787E-2,2.483192307E-2
1.213650712E1,5.762091841E-3,-3.060467390E-2,2.096986949E-2,3.754441628E-2
1.214646913E1,3.987475595E-3,-2.828641735E-2,2.546228528E-2,3.826681774E-2
1.215643113E1,-1.263958118E-2,-2.452521415E-2,-1.959401965E-2,3.384037157E-2
1.216639312E1,-2.430189620E-3,-1.817100836E-2,-2.543012559E-2,3.134936449E-2
1.217635513E1,-4.874706060E-3,-1.337468354E-2,-7.164008617E-3,1.593637156E-2
1.218631712E1,-6.512362700E-3,-1.743270602E-2,3.169190884E-3,1.887733768E-2
1.219627913E1,-8.277558305E-3,-2.040795207E-2,1.005838037E-2,2.421102011E-2
1.220624113E1,6.318304804E-4,2.583921142E-3,1.919056177E-2,1.937404241E-2
1.221620312E1,1.602777770E-2,2.256349158E-3,1.829769194E-2,2.442920997E-2
1.222616613E1,1.591943291E-2,1.388706408E-2,1.530918002E-2,2.608926764E-2
1.223612812E1,1.523000164E-2,4.125020608E-2,2.773802161E-2,5.198971336E-2
1.224609013E1,1.901780967E-2,3.442210173E-2,4.959491372E-2,6.329465727E-2
1.225605213E1,1.303348252E-2,2.829453036E-2,4.734899819E-2,5.667785938E-2
1.226601412E1,2.143829085E-2,3.220962496E-2,3.178078651E-2,5.007073643E-2
1.227597613E1,7.754150277E-4,3.070555665E-2,5.647591710E-2,6.428811469E-2
1.228593812E1,2.379214918E-3,2.338275958E-2,1.710310578E-2,2.906768544E-2
1.229590013E1,6.947593116E-3,2.603472769E-4,1.081384063E-2,1.285597059E-2
1.230586213E1,-2.709419292E-3,-1.763960609E-2,-1.328721285E-2,2.224964452E-2
1.231582412E1,-4.191382395E-3,-1.258640578E-2,1.724987090E-2,2.176105105E-2
1.232578613E1,-1.807656555E-2,-1.450619286E-2,6.621387005E-3,2.410465970E-2
1.233574812E1,-2.372380985E-3,-3.499503750E-2,2.518220365E-2,4.317897894E-2
1.234571013E1,-1.669672430E-2,-1.572818784E-2,-1.463382661E-2,2.720855337E-2
1.235567213E1,5.082753876E-3,-1.871099873E-2,9.470150471E-3,2.157822074E-2
1.236563412E1,-2.442210673E-3,-3.718555067E-3,5.731440783E-3,7.255443350E-3
1.237559613E1,3.382862076E-3,3.780773096E-4,1.920985758E-2,1.950910881E-2
1.238555812E1,5.222162004E-3,9.111314155E-3,3.223511517E-2,3.390264992E-2
1.239552013E1,1.424065389E-2,1.488394126E-2,3.687663496E-2,4.223995900E-2
1.240548213E1,1.591558539E-2,1.903025670E-2,1.472387373E-2,2.884872590E-2
1.241544412E1,1.428645746E-2,1.203663960E-2,1.577052534E-2,2.444776123E-2
1.242540613E1,2.932351241E-3,1.829774676E-2,3.059087813E-2,3.576601802E-2
1.243536812E1,6.856866485E-3,-3.011133336E-4,8.138154745E-3,1.064597811E-2
1.244533013E1,1.748092614E-2,-2.012611628E-3,-2.937056422E-3,1.783983421E-2
1.245529212E1,-6.616764050E-4,-1.336255057E-2,9.341511726E-3,1.631745736E-2
1.246525412E1,2.841492590E-2,-2.375354614E-2,4.182922661E-2,5.586880317E-2
1.247521613E1,-8.029403386E-3,7.716698404E-3,6.697576225E-2,6.789529794E-2
1.248517812E1,-1.063603045E-2,4.952591658E-3,5.649521291E-2,5.770062729E-2
1.249514013E1,-4.864877713E-3,1.174605126E-2,-1.835031688E-2,2.232422193E-2
1.250510212E1,-7.310672089E-3,1.888241351E-2,-1.939696848E-2,2.803986185E-2
1.251506413E1,5.758237476E-3,1.104758307E-2,3.389338553E-2,3.611049672E-2
1.252502613E1,1.854021320E-2,3.379780183E-2,6.532392383E-2,7.585015450E-2
1.253498812E1,1.689798957E-2,-6.039991044E-4,3.104052901E-2,3.534715417E-2
1.254495013E1,5.898244029E-3,3.602469563E-3,-2.000800252E-2,2.116807111E-2
1.255491212E1,2.960990720E-2,-9.753649067E-3,-1.746621788E-2,3.573442376E-2
1.256487512E1,1.403089189E-2,-2.563826820E-2,-1.013088584E-2,3.093253257E-2
1.257483713E1,1.092218542E-2,-3.788319658E-3,6.845569253E-2,6.942497634E-2
1.258479912E1,1.036252237E-3,-1.975277156E-2,-1.252707481E-2,2.341310330E-2
1.259476113E1,-8.199912534E-3,7.561272103E-3,5.977023840E-2,6.080207891E-2
1.260472312E1,-1.572305325E-2,7.246691901E-3,-3.603346646E-2,3.997673889E-2
1.261468513E1,-6.937994318E-3,4.825506080E-3,4.524750888E-2,4.602997213E-2
1.262464713E1,-6.059205771E-3,3.411813788E-3,3.566567659E-2,3.633723895E-2
1.263460912E1,6.870275110E-3,-6.195015348E-3,-7.121908665E-4,9.278260132E-3
1.264457113E1,-1.332522203E-3,6.302969567E-3,-2.780818820E-2,2.854467326E-2
1.265453312E1,8.801216438E-3,1.691964939E-2,2.652940214E-2,3.267330905E-2
1.266449513E1,1.336065593E-2,7.602293976E-3,1.545360625E-2,2.179715456E-2
1.267445713E1,1.922277171E-2,9.435286447E-3,6.170625150E-2,6.531616229E-2
1.268441912E1,-2.278348164E-3,1.080095848E-2,3.820044458E-2,3.976336933E-2
1.269438113E1,1.117346952E-3,1.391650116E-2,3.909506857E-2,4.151315280E-2
1.270434312E1,1.287615816E-2,6.792564243E-3,2.442031145E-2,2.843037090E-2
1.271430513E1,2.128981041E-2,-1.764214598E-3,2.621306777E-2,3.381557928E-2
1.272426713E1,1.847718547E-2,-1.992902856E-2,-3.456289172E-2,4.396778419E-2
1.273422912E1,4.840554666E-3,-4.721312352E-2,-1.435432971E-2,4.958383590E-2
1.274419113E1,1.792555892E-2,-7.357827371E-2,-2.438288927E-2,7.955886697E-2
1.275415312E1,1.027152736E-2,-4.666114636E-2,8.702995777E-3,4.856448280E-2
1.276411513E1,1.018679756E-3,-2.648605965E-2,7.959814668E-3,2.767503774E-2
1.277407713E1,-6.748629041E-3,-4.107760359E-3,1.215694606E-2,1.449858706E-2
1.278403912E1,-9.700566171E-3,2.209171264E-2,1.171606600E-2,2.682183726E-2
1.279400113E1,6.715013261E-4,3.279314054E-2,4.764720619E-2,5.784545996E-2
1.280396312E1,-8.190430223E-4,4.059190096E-2,1.082787395E-2,4.201923499E-2
1.281392513E1,1.144122288E-2,3.941348601E-2,1.142657036E-1,1.214124189E-1
1.282388713E1,-5.291678774E-3,4.156507865E-2,7.638919473E-2,8.712615393E-2
1.283384912E1,2.109233897E-2,1.012041567E-2,-1.672069788E-2,2.875571794E-2
1.284381113E1,2.097568016E-2,1.115968516E-2,3.222342074E-2,4.003581616E-2
1.285377312E1,1.880692504E-2,6.224050429E-3,4.179940581E-2,4.625612997E-2
1.286373513E1,1.046250748E-3,-2.767616903E-2,2.608033597E-2,3.804272463E-2
1.287369713E1,2.584283167E-3,-2.697002638E-2,1.812636852E-4,2.709416356E-2
1.288365912E1,1.410249972E-2,-3.097440066E-2,-2.856014013E-2,4.442944518E-2
1.289362213E1,-6.044237127E-3,-2.882505555E-2,-7.755162120E-3,3.045585607E-2
1.290358412E1,6.593440283E-3,-2.219654225E-2,3.206496119E-2,3.955150666E-2
1.291354613E1,-6.463552153E-3,-1.861702301E-2,9.017575979E-3,2.167228019E-2
1.292350813E1,6.315658711E-3,-3.068311796E-2,-1.837312102E-2,3.631683974E-2
1.293347012E1,-5.278929103E-3,-2.640220692E-2,-2.345669031E-2,3.570938173E-2
1.294343213E1,-3.262000586E-3,-1.561252261E-2,-1.507002890E-2,2.194304630E-2
1.295339412E1,2.540769376E-3,-1.989767287E-2,5.593446493E-3,2.082449371E-2
1.296335613E1,-3.958684910E-3,7.301637456E-3,2.880455375E-2,2.997811556E-2
1.297331813E1,1.405802548E-2,6.098883469E-3,-1.723759174E-3,1.542062922E-2
1.298328012E1,-7.889467638E-3,2.052407412E-2,4.408742130E-2,4.926643923E-2
1.299324213E1,-2.452689980E-3,3.185294481E-2,5.232205510E-2,6.130434920E-2
1.300320412E1,-5.001002492E-3,4.701322183E-2,6.429949164E-2,7.981026048E-2
1.301316613E1,-8.043772462E-3,6.449438665E-2,5.456680119E-2,8.486320744E-2
1.302312813E1,-4.692219256E-4,4.669237414E-2,1.953496277E-2,5.061632882E-2
1.303309012E1,1.253242068E-2,3.142251665E-2,3.707134724E-4,3.383154665E-2
1.304305213E1,3.617063163E-2,1.110240072E-2,3.524701595E-2,5.171005732E-2
1.305301412E1,4.399124830E-2,-1.225804808E-2,6.113965631E-2,7.631216969E-2
1.306297613E1,2.259086842E-2,-4.172101658E-2,-1.296093822E-2,4.918309140E-2
1.307293812E1,2.818160601E-2,-4.693616649E-2,-2.613413036E-2,6.066464713E-2
1.308290012E1,2.335900983E-3,-3.305811077E-2,-3.526338816E-2,4.839216533E-2
1.309286233E1,-4.894937198E-3,-3.774140161E-2,-1.984018743E-2,4.291860718E-2
1.310282433E1,-6.702876863E-3,-3.629346656E-2,1.489285827E-2,3.979876255E-2
1.311278633E1,-4.997153836E-4,-3.199718831E-2,-8.004253507E-3,3.298693453E-2
1.312274833E1,-5.474287776E-3,-3.542778628E-2,-2.042023122E-2,4.125629298E-2
1.313271033E1,-8.567769779E-4,-1.438221361E-2,-1.128337204E-2,1.830018087E-2
1.314267233E1,-7.325489984E-3,-6.153481845E-3,1.072905600E-2,1.437500556E-2
1.315263433E1,-4.981456575E-3,-2.039508820E-3,4.950428188E-2,4.979606842E-2
1.316259633E1,-8.321654534E-3,4.221324250E-2,3.454125702E-2,5.517523188E-2
1.317255833E1,4.545555784E-3,6.707805198E-2,2.406655490E-2,7.140956658E-2
1.318252033E1,4.084458291E-3,7.752530873E-2,5.879550755E-2,9.738463945E-2
1.319248233E1,2.447552196E-2,1.010815296E-1,1.062450778E-1,1.486759677E-1
1.320244433E1,2.857926236E-2,8.983930735E-2,1.379714853E-1,1.671047759E-1
1.321240633E1,2.779800125E-2,5.135836087E-2,6.146885455E-2,8.478696943E-2
1.322236933E1,2.398124037E-2,2.075112881E-2,-2.491615534E-2,4.033018762E-2
1.323233133E1,2.947499641E-2,-8.454799745E-3,-1.968874454E-2,3.644044064E-2
1.324229333E1,1.973597908E-2,-6.284675092E-2,6.945322752E-3,6.623790817E-2
1.325225533E1,1.737461302E-3,-8.790230753E-2,-1.132313311E-2,8.864563037E-2
1.326221733E1,1.653543936E-2,-1.009967450E-1,-5.683025837E-2,1.170616996E-1
1.327217933E1,-7.511768342E-3,-1.035087819E-1,-6.805398881E-2,1.241041498E-1
1.328214133E1,-8.415063804E-3,-7.806699844E-2,-3.870681345E-2,8.754134424E-2
1.329210333E1,-2.483274115E-2,-5.889202315E-2,2.764563560E-3,6.397326188E-2
1.330206533E1,-1.065960547E-2,-3.864349907E-2,-6.654716134E-3,4.063535968E-2
1.331202733E1,-2.302943015E-2,-1.045957245E-2,9.522775412E-3,2.702666388E-2
1.332198933E1,-6.980672140E-3,3.496954730E-2,1.911337852E-2,4.045887122E-2
1.333195133E1,6.755187744E-3,4.292011606E-2,6.911701262E-2,8.163902472E-2
1.334191333E1,1.428373143E-2,6.846663779E-2,6.538005710E-2,9.574057311E-2
1.335187533E1,2.739504358E-2,8.051890042E-2,5.505328953E-2,1.013145914E-1
1.336183733E1,1.231458448E-2,9.069400582E-2,6.328207612E-2,1.112729655E-1
1.337179933E1,2.311033186E-2,8.792958844E-2,8.992432952E-2,1.278752713E-1
1.338176133E1,2.779283926E-2,5.562275352E-2,5.039773643E-2,8.003914330E-2
1.339172333E1,5.743589744E-3,3.358291665E-2,3.571713209E-2,4.936106400E-2
1.340168533E1,1.548932337E-2,-2.140318472E-3,-1.084541559E-2,1.902953339E-2
1.341164733E1,1.178130243E-2,-3.186794657E-2,-4.867807031E-3,3.432288815E-2
1.342160933E1,1.809288636E-2,-6.708251048E-2,1.248906791E-2,7.059314815E-2
1.343157133E1,2.476710387E-3,-7.264443683E-2,1.577461839E-2,7.437867222E-2
1.344153333E1,-4.568827017E-3,-8.662785206E-2,-4.634853959E-2,9.835367840E-2
1.345149533E1,-2.640979460E-3,-7.861190412E-2,-1.009790754E-1,1.279983590E-1
1.346145733E1,-1.333208566E-3,-5.360202888E-2,-8.150726259E-2,9.756223040E-2
1.347141933E1,-3.364123577E-3,-4.903140659E-2,-7.247623801E-3,4.967820659E-2
1.348138133E1,-9.566909327E-3,-1.786686178E-2,1.440987825E-1,1.455170424E-1
1.349134333E1,-3.586692360E-3,1.853249419E-2,1.099732625E-1,1.115815226E-1
1.350130533E1,-7.806430324E-3,4.769566499E-2,-5.436156392E-3,4.863505535E-2
1.351126733E1,-2.397971690E-3,7.560859144E-2,3.846298456E-3,7.574432902E-2
1.352122933E1,-4.896959740E-3,8.001635050E-2,1.092254037E-1,1.354872148E-1
1.353119133E1,2.924749861E-5,7.484832549E-2,1.313734871E-1,1.511994239E-1
1.354115333E1,2.803922631E-4,5.228450501E-2,5.981292307E-2,7.944390380E-2
1.355111633E1,4.732660975E-3,2.659521986E-2,-1.474609315E-2,3.077581944E-2
1.356107833E1,6.310170094E-3,1.415455593E-2,3.208951950E-3,1.582615155E-2
1.357104033E1,1.480296875E-2,-1.978167873E-3,7.395558357E-3,1.666539274E-2
1.358100233E1,1.257992702E-2,-1.167462386E-2,4.181870162E-2,4.520348672E-2
1.359096433E1,8.658475854E-3,-2.721959285E-2,2.773977578E-2,3.981671256E-2
1.360092633E1,-9.529259882E-4,-4.417182220E-2,1.066766024E-2,4.545169875E-2
1.361088833E1,-5.931384723E-3,-4.249279423E-2,-1.463441133E-2,4.533194107E-2
1.362085033E1,1.995630034E-2,-3.807701351E-2,-1.628741920E-2,4.597165328E-2
1.363081233E1,2.923914577E-2,-3.801247487E-2,-2.616862893E-2,5.463216114E-2
1.364077433E1,1.869839295E-2,-2.680952031E-2,-3.829283059E-2,5.034601427E-2
1.365073633E1,1.651205050E-2,-2.615938302E-2,2.353036523E-2,3.886694250E-2
1.366069833E1,1.621799037E-2,-4.422121290E-3,3.505581200E-2,3.887786418E-2
1.367066033E1,1.066965309E-2,1.415409911E-3,4.149242699E-2,4.286567834E-2
1.368062233E1,-5.313297483E-3,3.609232234E-2,1.821992397E-3,3.652679179E-2
1.369058433E1,-1.344647182E-3,3.775008107E-2,9.238600731E-4,3.778531744E-2
1.370054633E1,-9.503141558E-4,4.672875479E-2,4.508203268E-2,6.493742597E-2
1.371050833E1,-5.253996210E-3,4.373770298E-2,6.588467181E-2,7.925516461E-2
1.372047033E1,-3.288389572E-3,2.348245461E-2,4.911251843E-2,5.453694754E-2
1.373043233E1,-1.772132321E-3,1.664356945E-2,1.272880375E-2,2.102786965E-2
1.374039433E1,1.677870066E-2,-4.667941891E-3,-1.377253175E-2,2.220353819E-2
1.375035633E1,6.037236457E-3,-1.799698060E-2,3.083061397E-2,3.620588754E-2
1.376031833E1,1.465191986E-2,-9.068300575E-4,4.190290153E-2,4.439993528E-2
1.377028033E1,2.409493217E-2,-2.691575691E-2,1.914495349E-2,4.088463000E-2
1.378024233E1,3.150761191E-2,-1.532853065E-2,2.673346996E-3,3.514029374E-2
1.379020433E1,2.590853290E-2,8.750120681E-3,-1.918471456E-2,3.340463982E-2
1.380016633E1,2.858120381E-2,7.783301845E-3,1.943263650E-2,3.542728271E-2
1.381012833E1,1.679906656E-2,-2.686430141E-4,3.888749242E-2,4.236175012E-2
1.382009033E1,1.611995814E-2,-1.115994098E-2,2.885308564E-2,3.488406347E-2
1.383005233E1,-8.007765262E-3,-1.960633535E-2,-1.920342565E-2,2.858853349E-2
1.384001433E1,-2.238833777E-3,-1.460095430E-2,-1.681016028E-2,2.237815300E-2
1.384997633E1,-2.550437153E-2,-2.057187511E-2,9.384781122E-3,3.408444116E-2
1.385993833E1,-3.413185143E-2,-3.070612310E-2,2.899283409E-2,5.429948164E-2
1.386990133E1,-3.534804488E-2,-1.224326558E-2,2.674633384E-2,4.598639149E-2
1.387986333E1,-3.555513224E-2,-4.557630513E-3,-1.142545938E-2,3.762287265E-2
1.388982533E1,-1.394666000E-2,1.875421330E-3,1.072847128E-2,1.769538432E-2
1.389978733E1,-6.800013733E-3,1.123087501E-2,2.030270219E-2,2.417793325E-2
1.390974933E1,6.897213415E-3,1.993661167E-2,3.556978226E-2,4.135516229E-2
1.391971133E1,2.143808072E-2,-4.708653130E-3,3.272452712E-2,3.940377386E-2
1.392967333E1,4.257719513E-2,-3.538826276E-3,2.269187450E-2,4.837625456E-2
1.393963533E1,6.467210546E-2,-1.234502541E-2,-3.607732058E-4,6.584080068E-2
1.394959733E1,5.139249856E-2,-7.161688004E-3,4.725719690E-3,5.210384928E-2
1.395955933E1,4.178244889E-2,-1.101736028E-2,1.475427926E-2,4.566009219E-2
1.396952133E1,3.329319168E-2,-1.175981048E-2,1.610089302E-2,3.880681011E-2
1.397948333E1,2.641387623E-2,-1.204427753E-2,1.894497871E-2,3.466510778E-2
1.398944533E1,-6.420473477E-3,-3.945134673E-3,2.014190376E-2,2.150541453E-2
1.399940733E1,-2.225924450E-2,-1.536712227E-2,6.371710896E-3,2.778886670E-2
1.400936933E1,-2.473233806E-2,-2.326479200E-3,1.071209908E-2,2.705272848E-2
1.401933133E1,-1.919370693E-2,-1.529068820E-2,-9.043888450E-3,2.615330667E-2
1.402929333E1,-2.672391342E-2,-1.001034183E-2,9.370747805E-3,3.003640136E-2
1.403925533E1,-1.346607484E-2,-2.409295874E-2,9.221059084E-3,2.910040829E-2
1.404921733E1,-7.193865962E-3,-1.127889527E-2,6.529000998E-3,1.488600148E-2
1.405917933E1,-7.408970408E-3,-2.555013970E-2,-1.756971359E-2,3.188098676E-2
1.406914133E1,1.360807424E-2,-2.338009179E-2,-1.561732829E-2,3.123634613E-2
1.407910333E1,2.839180884E-2,-3.053832628E-2,-1.321529210E-2,4.374160635E-2
1.408906533E1,3.419821733E-2,-3.915103739E-2,-3.895122707E-2,6.495783161E-2
1.409902713E1,3.861646940E-2,-4.307660216E-2,-1.034781754E-2,5.876991315E-2
1.410898913E1,2.402398900E-2,-2.144486440E-2,1.664404088E-1,1.695271186E-1
1.411895112E1,2.550314270E-2,1.184437584E-2,5.687118888E-2,6.344313715E-2
1.412891313E1,2.501040286E-2,2.126917385E-2,-1.044850659E-1,1.095218107E-1
1.413887512E1,2.441571590E-2,2.550729057E-2,-5.477788568E-2,6.517181764E-2
1.414883713E1,3.898511351E-2,1.604322486E-2,5.151455462E-2,6.656555774E-2
1.415879912E1,2.566221894E-2,-1.605237940E-2,1.316073757E-1,1.350434364E-1
1.416876112E1,1.492835269E-3,-1.471857470E-2,5.467205107E-2,5.663831006E-2
1.417872313E1,-8.076233645E-3,2.267897408E-3,-3.438630581E-2,3.539473034E-2
1.418868612E1,-1.759769458E-2,2.351545483E-2,-2.540088952E-2,3.883118152E-2
1.419864813E1,-4.146941728E-2,3.427760242E-2,6.591741621E-2,8.508685185E-2
1.420861013E1,-5.414079498E-2,3.991705919E-2,6.082975388E-2,9.069099323E-2
1.421857212E1,-2.364245133E-2,2.890976708E-2,5.903582811E-2,6.985677590E-2
1.422853413E1,-1.208442803E-2,1.658559065E-2,-7.128925323E-3,2.172410629E-2
1.423849612E1,1.694090265E-3,-1.015765512E-2,1.801702559E-2,2.075237602E-2
1.424845813E1,5.627230152E-3,6.628513299E-3,6.082741499E-2,6.144572664E-2
1.425842012E1,2.295715309E-2,-1.750685602E-2,-1.162426472E-2,3.112305280E-2
1.426838212E1,4.402790761E-2,-2.735216020E-2,-2.823678911E-2,5.902468615E-2
1.427834413E1,3.961528804E-2,-1.030052818E-2,8.886013627E-3,4.188595428E-2
1.428830612E1,5.642269830E-2,-5.309838261E-3,4.002419114E-2,6.938048099E-2
1.429826813E1,2.811351564E-2,1.702469828E-2,4.840968311E-2,5.851245621E-2
1.430823012E1,1.673814017E-2,7.591239084E-3,-5.623267293E-3,1.922012961E-2
1.431819213E1,1.307141062E-2,4.283852912E-3,-2.702466130E-2,3.032400847E-2
1.432815413E1,4.482389867E-3,-1.135370309E-2,2.701530576E-2,2.964498504E-2
1.433811612E1,-1.117424610E-3,-1.222945154E-3,7.207278013E-2,7.209181555E-2
1.434807813E1,-1.084232867E-2,-1.051987186E-3,5.111577451E-2,5.226361231E-2
1.435804012E1,-1.677843228E-2,-1.523298349E-2,-3.061134338E-2,3.808692584E-2
1.436800213E1,-1.825613560E-2,6.990328040E-3,-4.976916075E-2,5.347074466E-2
1.437796413E1,-2.485470932E-2,5.398478396E-3,1.804216862E-2,3.118364945E-2
1.438792612E1,-1.659230467E-2,8.474095557E-3,7.597345769E-2,7.822455589E-2
1.439788813E1,-1.296759285E-2,1.451145535E-2,4.244259953E-2,4.669170222E-2
1.440785012E1,-1.722059485E-2,4.509911751E-2,-1.189616024E-2,4.971919062E-2
1.441781213E1,-7.995853844E-3,4.394030901E-2,3.076395571E-2,5.423195926E-2
1.442777413E1,1.754712986E-2,7.038567569E-3,1.459640443E-2,2.388510461E-2
1.443773612E1,3.755007888E-2,3.816770017E-3,7.716395080E-2,8.590024133E-2
1.444769813E1,4.068269269E-2,-5.624473281E-3,1.578397393E-2,4.399829562E-2
1.445766012E1,5.491032968E-2,-2.707882114E-2,-1.849766672E-2,6.395756823E-2
1.446762213E1,4.024264403E-2,-1.728714690E-2,-2.523541331E-2,5.054841176E-2
1.447758413E1,2.947675514E-2,-9.322965089E-3,1.174062431E-2,3.307021365E-2
1.448754612E1,3.788988891E-2,-2.118153870E-3,6.009358943E-2,7.107298887E-2
1.449750813E1,6.336251873E-3,-1.237561366E-2,3.928510308E-2,4.167281158E-2
1.450747012E1,-4.874998421E-3,8.316933364E-4,-2.044186592E-2,2.103157640E-2
1.451743313E1,-2.614982191E-3,-2.301116902E-3,-1.565182686E-2,1.603474212E-2
1.452739513E1,-7.538644978E-3,-2.033742003E-2,3.045463800E-2,3.738885927E-2
1.453735712E1,-2.620688251E-2,-3.438729253E-3,4.707067072E-2,5.398401238E-2
1.454731913E1,-6.800535643E-3,-1.500101348E-2,1.623187065E-2,2.312469060E-2
1.455728112E1,-1.378760888E-3,-1.273940183E-2,1.683004081E-2,2.115286303E-2
1.456724313E1,-8.995666051E-3,-7.130953576E-3,-2.331869602E-3,1.171367246E-2
1.457720513E1,-3.923927096E-3,-1.986335702E-3,3.449389458E-2,3.477314332E-2
1.458716712E1,9.600431460E-4,2.249697950E-3,1.548225760E-2,1.567428226E-2
1.459712913E1,6.984065124E-3,3.668177649E-3,1.398770928E-2,1.605891354E-2
1.460709112E1,1.603508558E-2,1.425172934E-2,1.758140802E-2,2.773700897E-2
1.461705313E1,2.757217539E-2,-4.069461096E-3,4.108019829E-2,4.964240184E-2
1.462701513E1,1.253034446E-2,1.065474154E-2,1.967295706E-2,2.564289939E-2
1.463697712E1,3.836296520E-2,3.200254217E-3,-3.080313206E-3,3.861925757E-2
1.464693913E1,3.535271351E-2,1.132318793E-2,1.547933400E-2,4.021987964E-2
1.465690112E1,1.225134548E-2,-3.928780742E-4,8.291351795E-3,1.479852472E-2
1.466686313E1,7.098010455E-3,-5.286650397E-3,1.472679734E-2,1.718164674E-2
1.467682513E1,2.794845742E-2,-7.467004023E-3,2.939512253E-2,4.124252235E-2
1.468678712E1,3.653433986E-3,1.396903474E-2,2.116107345E-2,2.561781686E-2
1.469674913E1,-5.127297782E-3,1.628089590E-2,8.136400580E-3,1.890919798E-2
1.470671112E1,-1.403188203E-2,9.498728737E-3,4.914818645E-2,5.198715026E-2
1.471667313E1,-2.351303372E-2,2.928011511E-3,2.728954017E-2,3.614076658E-2
1.472663513E1,-3.542534461E-3,1.083174773E-2,1.291591465E-2,1.722489944E-2
1.473659712E1,-8.120840363E-3,-6.822713949E-3,-1.792405486E-2,2.082712694E-2
1.474655913E1,8.661951064E-3,-2.803524289E-2,9.318122864E-3,3.078687470E-2
1.475652112E1,8.211225526E-3,-1.601903200E-2,1.096352935E-2,2.107682582E-2
1.476648313E1,2.680955229E-2,-1.960734034E-2,1.874734282E-2,3.814004132E-2
1.477644512E1,2.108701481E-2,-1.722595213E-2,-1.298608124E-2,3.016676857E-2
1.478640713E1,2.184718939E-2,-1.547447350E-3,-5.799853206E-3,2.265684388E-2
1.479636913E1,2.889388595E-2,3.789982460E-3,1.246334016E-2,3.169472291E-2
1.480633112E1,2.519960825E-2,4.475385770E-3,2.803272128E-2,3.795896200E-2
1.481629313E1,2.805741206E-2,1.724800710E-2,1.935311437E-2,3.820019838E-2
1.482625512E1,9.214799594E-3,1.632827662E-2,2.474249303E-2,3.104377732E-2
1.483621812E1,1.155537949E-2,6.586906705E-3,5.732610226E-3,1.448367892E-2
1.484618013E1,1.487302913E-2,7.004050724E-3,1.890580237E-2,2.505380381E-2
1.485614212E1,-2.127259310E-3,1.901532803E-3,6.332534552E-3,6.945649935E-3
1.486610413E1,-6.290253015E-3,6.021115500E-3,2.175222695E-2,2.343033274E-2
1.487606612E1,-1.845026544E-2,6.534702033E-3,2.175515056E-2,2.926433326E-2
1.488602813E1,-2.249647700E-4,3.194772452E-4,3.852204144E-2,3.852402304E-2
1.489599013E1,-1.786533717E-2,1.667980392E-2,2.579733074E-2,3.553714119E-2
1.490595212E1,-1.550771812E-3,1.482567010E-2,2.250184000E-2,2.699144662E-2
1.491591413E1,-4.903541284E-4,1.802608877E-2,2.025475502E-2,2.711891267E-2
1.492587612E1,-8.244483849E-3,1.267705590E-2,1.681074500E-2,2.261151051E-2
1.493583813E1,1.319457674E-2,4.390436690E-3,3.896233678E-2,4.136951144E-2
1.494580013E1,2.515509176E-2,-1.584047265E-3,2.309065461E-2,3.418283454E-2
1.495576212E1,2.675793691E-2,-1.358660856E-2,3.927574754E-3,3.026563998E-2
1.496572413E1,4.691901770E-2,-1.493358778E-2,-2.122013032E-2,5.361623073E-2
1.497568612E1,4.000357514E-2,-2.353420246E-2,-1.373394012E-2,4.840212620E-2
1.498564813E1,2.626525645E-2,-1.256405845E-2,5.574735403E-3,2.964450938E-2
1.499561013E1,1.409510391E-2,-6.489824653E-3,1.889878571E-2,2.445309550E-2
1.500557212E1,-6.651616653E-3,-1.611766722E-3,9.919216633E-3,1.205125117E-2
1.501553413E1,-8.814035773E-3,-1.026904458E-2,3.336421251E-3,1.393815662E-2
1.502549612E1,-2.067388161E-3,1.423621595E-2,3.013187170E-2,3.338972343E-2
1.503545813E1,-8.044678095E-3,3.246319313E-3,2.145168006E-2,2.313936067E-2
1.504542013E1,-3.544721457E-3,5.374468267E-3,1.950865030E-2,2.054354877E-2
1.505538212E1,-2.773268146E-3,-1.577306522E-2,1.097814739E-2,1.941649615E-2
1.506534413E1,-8.104773082E-3,-2.336711828E-3,-1.145469546E-3,8.512324557E-3
1.507530612E1,6.184631973E-3,-4.807617255E-3,1.068169355E-2,1.324618562E-2
1.508526813E1,-7.886655950E-3,8.503751904E-3,2.954305708E-2,3.173807430E-2
1.509523025E1,3.802339272E-3,1.475137392E-2,4.960193038E-2,5.188846032E-2
1.510519225E1,-4.688395725E-3,2.463777306E-2,3.642932296E-2,4.422777958E-2
1.511515425E1,5.170663109E-3,2.597135849E-2,1.352753341E-2,2.973619645E-2
1.512511625E1,1.245262788E-2,1.069483152E-2,1.053434372E-2,1.950435233E-2
1.513507825E1,1.942412378E-2,-8.303850219E-3,3.523239791E-2,4.108007273E-2
1.514504025E1,1.961341368E-2,-5.552570801E-3,2.654869795E-2,3.347163577E-2
1.515500325E1,3.656209587E-2,-1.500907168E-2,-3.987801075E-4,3.952490496E-2
1.516496525E1,1.409421084E-2,-2.906110033E-2,-1.027882040E-2,3.389466743E-2
1.517492725E1,7.396209317E-3,-9.623000342E-3,1.337258220E-2,1.805912519E-2
1.518488925E1,1.283349632E-3,-1.020748436E-2,9.181298018E-3,1.378897953E-2
1.519485125E1,-9.873964665E-3,1.142107397E-3,2.310293376E-2,2.515045002E-2
1.520481325E1,-1.674491814E-3,7.497738451E-3,7.683241367E-3,1.086518305E-2
1.521477525E1,-2.588008026E-2,7.724610418E-3,1.471627235E-2,3.075738663E-2
1.522473725E1,-6.765582541E-3,-8.368041683E-3,1.681425333E-2,1.996287414E-2
1.523469925E1,-1.280775487E-3,-1.087198388E-2,2.579440713E-2,2.802127510E-2
1.524466125E1,7.416035032E-3,-1.952091118E-2,2.070440590E-2,2.940639340E-2
1.525462325E1,6.137634977E-3,-1.404227111E-2,-2.046525478E-3,1.546105455E-2
1.526458525E1,3.050362214E-3,-1.168525849E-2,-1.746563315E-3,1.220247757E-2
1.527454725E1,3.508699411E-3,1.681145763E-2,2.579908490E-2,3.099240005E-2
1.528450925E1,1.841450149E-2,5.053912941E-3,2.939336836E-2,3.505147650E-2
1.529447125E1,2.373904459E-2,1.700662673E-2,3.044177413E-2,4.218375520E-2
1.530443325E1,1.670746627E-2,1.540072549E-2,1.517235518E-2,2.732255728E-2
1.531439525E1,1.582932640E-2,-3.763925806E-3,1.906426191E-2,2.506353515E-2
1.532435725E1,1.206136921E-2,3.604442999E-4,1.187686443E-2,1.693122725E-2
1.533431925E1,7.381715759E-3,6.737984139E-3,1.681834638E-2,1.956391916E-2
1.534428125E1,9.494937183E-3,-6.615338791E-3,3.178780317E-2,3.382870039E-2
1.535424325E1,6.761311332E-4,-6.731259841E-3,1.621900678E-2,1.757336602E-2
1.536420525E1,1.783060448E-3,1.396369915E-3,3.103760540E-2,3.112012376E-2
1.537416725E1,-5.526446766E-3,8.721323144E-3,6.338966489E-3,1.211551020E-2
1.538412925E1,4.829660801E-3,7.257088982E-3,1.262881637E-2,1.534529135E-2
1.539409125E1,-1.449167304E-3,1.178873593E-2,3.118904829E-2,3.337410844E-2
1.540405325E1,-8.550173314E-3,2.675219933E-2,3.956810832E-2,4.852237451E-2
1.541401525E1,-7.560774176E-3,9.215303231E-3,1.771004677E-2,2.134790098E-2
1.542397725E1,-4.445925853E-3,-1.459958386E-3,1.201953650E-2,1.289833294E-2
1.543393925E1,-2.032964963E-3,-1.008516792E-3,1.066824496E-2,1.090694747E-2
1.544390125E1,2.492848474E-3,-1.180538222E-2,9.466642141E-3,1.533618780E-2
1.545386325E1,3.103594717E-3,-2.302925885E-2,2.129205108E-2,3.151714616E-2
1.546382525E1,1.369668011E-2,-4.089853261E-3,-2.659898400E-3,1.453963567E-2
1.547378725E1,2.471354018E-2,-2.316666842E-3,2.126632333E-3,2.491281956E-2
1.548374925E1,2.126972659E-2,2.227575375E-2,4.044519067E-2,5.083722969E-2
1.549371225E1,2.633254055E-2,5.423986875E-3,-3.200531960E-2,4.179907664E-2
1.550367425E1,3.778848996E-2,-2.838677019E-3,2.966292500E-2,4.812397719E-2
1.551363625E1,2.466641299E-2,8.891385756E-3,5.719980240E-2,6.292301697E-2
1.552359825E1,1.807228292E-2,9.240665529E-3,7.501977682E-3,2.163970837E-2
1.553356025E1,2.820980512E-2,-6.112514790E-3,-4.279518664E-2,5.161960811E-2
1.554352225E1,2.370302711E-2,-1.568853641E-2,-2.379232049E-3,2.852410234E-2
1.555348425E1,1.297505148E-2,-3.214702321E-2,-4.774251580E-3,3.499395005E-2
1.556344625E1,1.186986947E-2,-6.483368961E-2,3.235381365E-2,7.342390869E-2
1.557340825E1,-1.673170595E-2,-1.677926140E-2,6.902696550E-2,7.298092602E-2
1.558337025E1,-3.615279991E-2,6.039716955E-3,-2.226034999E-3,3.672136100E-2
1.559333225E1,-2.327449016E-2,3.095866799E-2,2.416069508E-3,3.880693763E-2
1.560329425E1,-3.566515583E-2,4.308360055E-2,-1.172366738E-3,5.594259933E-2
1.561325625E1,-1.147417286E-2,3.800374059E-2,3.804958642E-2,5.498828937E-2
1.562321825E1,8.550238410E-3,1.362843443E-2,2.472729027E-2,2.950050315E-2
1.563318025E1,1.249297253E-2,-4.276872799E-4,4.673094749E-2,4.837394684E-2
1.564314225E1,3.612716581E-2,-2.255124897E-2,-5.660104752E-3,4.296239897E-2
1.565310425E1,3.798686132E-2,-2.869250648E-2,1.050627708E-2,4.875082993E-2
1.566306625E1,4.131545279E-2,-3.295801375E-2,-9.936290503E-2,1.125441434E-1
1.567302825E1,4.060270918E-2,-1.581902068E-2,9.089672148E-2,1.008019612E-1
1.568299025E1,1.366545004E-2,5.676659681E-3,7.821820378E-3,1.673767798E-2
1.569295225E1,2.366205549E-2,1.433402890E-2,6.830015659E-2,7.369035653E-2
1.570291425E1,-6.721305870E-3,3.036780685E-2,-5.624085903E-2,6.426829600E-2
1.571287625E1,2.186566293E-3,1.157730427E-2,6.276284337E-2,6.385913838E-2
1.572283825E1,-4.114048399E-3,1.612000611E-2,-1.038412875E-1,1.051655503E-1
1.573280025E1,2.595994729E-2,-7.688083593E-3,1.492858475E-1,1.517210920E-1
1.574276225E1,-1.191658439E-2,-2.651072759E-3,7.674470544E-3,1.441980126E-2
1.575272425E1,-3.139145103E-3,-2.397837158E-2,9.022838473E-3,2.581139574E-2
1.576268625E1,-2.927947100E-2,1.630006380E-2,-6.642027676E-2,7.439511185E-2
1.577264825E1,-2.418856985E-2,3.104221009E-2,6.680443883E-2,7.753411356E-2
1.578261025E1,-4.959763176E-2,4.319001988E-2,-1.178272426E-2,6.681418625E-2
1.579257325E1,-3.063104348E-2,3.234350793E-2,1.073677433E-1,1.162419701E-1
1.580253525E1,-2.930857003E-2,2.163248694E-2,-9.394721389E-3,3.761937743E-2
1.581249725E1,-4.464369707E-3,-4.354512859E-3,7.547293603E-2,7.573015550E-2
1.582245925E1,9.942125841E-3,-1.927574839E-2,-4.039548934E-2,4.584970993E-2
1.583242125E1,5.384071405E-2,-4.476794584E-2,-2.048981309E-2,7.295768571E-2
1.584238325E1,6.702343533E-2,-4.019946143E-2,-4.204323471E-2,8.874554167E-2
1.585234525E1,7.356653360E-2,-3.597486639E-2,6.094494402E-2,1.020809095E-1
1.586230725E1,4.058681663E-2,-1.322020741E-2,-2.407766461E-2,4.900813709E-2
1.587226925E1,4.388378288E-2,-2.287905850E-4,2.083362937E-2,4.857858435E-2
1.588223125E1,8.712853817E-4,1.873590421E-2,-3.274908543E-2,3.773984421E-2
1.589219325E1,-3.687612789E-3,2.155075382E-2,4.209995270E-2,4.743879737E-2
