"Time (s)","Linear Acceleration x (m/s2)","Linear Acceleration y (m/s2)","Linear Acceleration z (m/s2)","Absolute acceleration (m/s2)"
5.246916669E-3,7.106472929E-3,2.391807217E-2,6.536719322E-2,6.996746446E-2
1.520891662E-2,-1.382606346E-2,2.306434214E-2,-4.539193511E-3,2.727138037E-2
2.517191658E-2,7.593141713E-3,-4.794479292E-3,6.641033649E-2,6.701474186E-2
3.513391665E-2,-1.204156862E-2,2.873084228E-3,3.240526915E-3,1.279667936E-2
4.509691661E-2,1.157833895E-2,-5.004248153E-3,1.192130327E-2,1.735563033E-2
5.505891668E-2,-9.682794975E-3,-1.202997012E-2,-2.265737593E-2,2.741958030E-2
6.502091663E-2,5.268069499E-3,-1.311495753E-2,1.626286089E-2,2.154612057E-2
7.498391659E-2,3.125464674E-3,-5.672164634E-4,-3.514176607E-4,3.195897107E-3
8.494591666E-2,7.667664019E-4,-1.213671835E-2,3.168255329E-2,3.393629394E-2
9.490891662E-2,1.408340719E-3,-2.290827630E-2,2.958749592E-2,3.744586041E-2
1.048709166E-1,1.164093842E-2,-4.310110565E-3,2.554473102E-2,2.840108771E-2
1.148339167E-1,-1.542084357E-3,1.058177926E-2,5.484103560E-3,1.201779798E-2
1.247959166E-1,1.588817314E-2,8.165161572E-3,1.252005816E-2,2.181411849E-2
1.347589167E-1,9.023057744E-3,9.451183565E-3,7.731773257E-3,1.518291011E-2
1.447209166E-1,1.568096472E-2,6.349930018E-3,2.299826860E-2,2.855056260E-2
1.546839166E-1,2.881839292E-2,5.254892707E-3,2.794033527E-2,4.048179842E-2
1.646459167E-1,1.178965641E-2,-3.357891496E-3,7.734112144E-3,1.449441010E-2
1.746089166E-1,4.855308607E-3,-1.770938896E-3,2.104997635E-2,2.167514130E-2
1.845709166E-1,7.596003651E-3,4.158210866E-3,2.119732618E-2,2.289796118E-2
1.945339167E-1,-3.439535529E-3,7.882759329E-3,2.778421462E-2,2.908489094E-2
2.044959166E-1,-3.772495631E-3,9.602352362E-3,1.925488114E-2,2.184461815E-2
2.144579167E-1,-2.305991105E-3,3.186641168E-3,1.685986161E-2,1.731263153E-2
2.244209166E-1,-3.767488953E-3,7.241100501E-3,1.790768266E-2,1.968025934E-2
2.343829166E-1,-1.047964713E-2,-7.034858242E-3,2.344382644E-2,2.662564990E-2
2.443459167E-1,-1.327517124E-2,-1.676440582E-2,1.505774975E-2,2.615360972E-2
2.543079166E-1,-7.107955290E-3,-2.602975756E-2,3.528794646E-3,2.721256509E-2
2.642709166E-1,6.420258775E-3,-1.759301109E-2,3.847467899E-4,1.873183899E-2
2.742329167E-1,-3.115378227E-4,-2.564605230E-2,3.080313206E-3,2.583225472E-2
2.841959166E-1,9.292417956E-3,-1.427500857E-2,-5.104619265E-4,1.704070047E-2
2.941579167E-1,6.956062443E-3,-6.298017707E-3,2.194050729E-2,2.386289362E-2
3.041209166E-1,1.146227857E-3,7.678472232E-3,1.699785590E-2,1.868689058E-2
3.140829166E-1,8.301022542E-3,6.368695926E-3,3.046691716E-2,3.221335599E-2
3.240459167E-1,2.039445322E-2,1.021278340E-2,4.094220400E-2,4.686681913E-2
3.340079166E-1,2.266381929E-2,4.023542181E-3,2.657734931E-2,3.515953772E-2
3.439709166E-1,3.928991790E-2,4.281459209E-3,7.463561475E-2,8.445415047E-2
3.539329167E-1,-1.805896566E-3,2.461513337E-3,-2.191419482E-2,2.212582756E-2
3.638949166E-1,1.397440687E-2,-8.728065714E-3,1.012445390E-2,1.933824566E-2
3.738579167E-1,-7.175205122E-3,6.123862043E-4,1.291065216E-3,7.316107899E-3
3.838199166E-1,-1.348906970E-2,6.470400933E-3,2.299534500E-2,2.743368333E-2
3.937829166E-1,-1.106642207E-2,1.439036317E-3,3.257834673E-2,3.443668391E-2
4.037449167E-1,-8.752745076E-3,1.256742060E-2,1.506944418E-2,2.148578029E-2
4.137079166E-1,-1.173763446E-2,-6.286670454E-3,5.219166219E-2,5.386338172E-2
4.236699166E-1,-4.352806203E-2,1.429114323E-2,-6.563616514E-2,8.004395751E-2
4.336329167E-1,-3.838073982E-2,-1.431131613E-2,-2.928519487E-2,5.035392335E-2
4.435949166E-1,-4.454285727E-1,5.275981056E-2,-2.124410391E-2,4.490451235E-1
4.535579167E-1,-2.928091764E0,5.254346358E-1,-7.367725611E-2,2.975774062E0
4.635198750E-1,-4.071165413E0,2.232961574E-1,2.038339376E-3,4.077285022E0
4.734828749E-1,-3.354554929E0,-3.888585520E-1,1.148983723E-1,3.378971941E0
4.834448750E-1,-1.958746931E0,-3.832761421E-1,1.288229316E-1,2.000046371E0
4.934068749E-1,-1.612256573E0,-4.326022301E-1,8.046821237E-2,1.671224425E0
5.033698750E-1,-6.785082731E-1,-3.497513870E-1,-8.945538282E-2,7.685712555E-1
5.133318750E-1,-7.621575169E-2,-2.953617016E-1,-1.214969552E-1,3.283426346E-1
5.232948749E-1,-2.827833723E-1,2.465988284E-2,1.320628738E-1,3.130737104E-1
5.332568750E-1,-2.233091675E-1,3.430236903E-1,1.758953565E-1,4.455013051E-1
5.432198750E-1,-1.473783689E0,4.769803311E-1,4.157545745E-2,1.549605471E0
5.531818749E-1,-2.591593566E0,-3.492158186E-3,1.446577764E-1,2.595630035E0
5.631448750E-1,-2.296866708E0,-6.059109611E-1,-2.303919911E-2,2.375553740E0
5.731068749E-1,-9.256411350E-1,-1.368919723E0,-1.735319120E-1,1.661585401E0
5.830698749E-1,-1.419295679E0,-1.719522574E0,4.793021142E-2,2.230124528E0
5.930318750E-1,-1.391383556E0,-1.965212051E0,2.295704573E-1,2.418823929E0
6.029948749E-1,-1.012659983E0,-2.189657131E0,2.565764076E-1,2.426089456E0
6.129568750E-1,-1.522404822E-1,-2.482542994E0,-2.039865500E-1,2.495557532E0
6.229198750E-1,1.805269909E-1,-2.650337033E0,-2.054401678E-1,2.664410262E0
6.328818749E-1,-7.631723743E-2,-2.589192992E0,4.396082908E-1,2.627356108E0
6.428438750E-1,-2.492197058E-2,-2.823783284E0,3.756251335E-3,2.823895757E0
6.528068749E-1,-6.538994255E-2,-2.996639842E0,-4.814246535E-2,2.997739796E0
6.627688750E-1,5.271568235E-2,-3.018870664E0,6.013685882E-2,3.019929713E0
6.727318750E-1,-2.852147542E-1,-2.957162366E0,1.823196924E-1,2.976473951E0
6.826938749E-1,-1.014634990E-1,-2.742856649E0,2.166323233E-1,2.753268422E0
6.926568750E-1,4.644832233E-1,-2.457071061E0,-1.940685028E-1,2.508107942E0
7.026188750E-1,9.131029505E-1,-2.326043583E0,-7.828778565E-2,2.500072944E0
7.125818749E-1,1.214309401E0,-2.372709772E0,2.423916471E-1,2.676387994E0
7.225438750E-1,1.122295788E0,-2.278714611E0,3.242976898E-1,2.560714179E0
7.325068749E-1,1.456666549E0,-1.656727571E0,2.234665489E-1,2.217331951E0
7.424688750E-1,1.830454488E0,-1.171108344E0,-3.162419808E-1,2.195920622E0
7.524318750E-1,1.700379813E0,-7.068486310E-1,-2.607665223E-1,1.859818721E0
7.623938749E-1,1.048549900E0,-2.706738800E-1,3.940345073E-1,1.152382070E0
7.723568750E-1,5.464193060E-1,-7.878958639E-2,3.513135803E-1,6.543722859E-1
7.823188750E-1,9.593373962E-1,-1.796595016E-1,-5.377444500E-1,1.114349528E0
7.922818749E-1,4.147242951E-1,1.172128099E-1,2.877999544E-3,4.309795432E-1
8.022438750E-1,-5.253480604E-1,2.297618075E-1,4.873771191E-1,7.525407158E-1
8.122058749E-1,-4.124703397E-1,-1.342687268E-1,-4.738332134E-1,6.424000205E-1
8.221688749E-1,-9.482871088E-1,-1.544881336E-1,-1.162952721E-2,9.608591313E-1
8.321308750E-1,-1.457054951E0,-2.253720286E-1,4.695910585E-1,1.547358214E0
8.420938749E-1,-1.538137121E0,-5.336574290E-1,-3.047989798E-1,1.656369063E0
8.520558750E-1,-1.971209248E0,-6.405417171E-1,-5.470479548E-2,2.073391474E0
8.620188750E-1,-2.312441351E0,-7.640802276E-1,4.290762860E-1,2.472915295E0
8.719808749E-1,-1.884867507E0,-1.066147096E0,-1.342491478E-1,2.169658495E0
8.819438750E-1,-1.297325976E0,-1.275919173E0,-1.470071876E-1,1.825550749E0
8.919058749E-1,-7.132451925E-1,-1.618347763E0,3.228750622E-1,1.797780991E0
9.018688749E-1,-1.730858791E-1,-1.930088704E0,2.189957678E-1,1.950169293E0
9.118308750E-1,1.278962759E-1,-2.139202823E0,-3.825225091E-1,2.176894496E0
9.217938749E-1,5.206157261E-1,-2.177597834E0,-4.560009599E-2,2.239431274E0
9.317558750E-1,-3.650866237E-1,-1.740016627E0,5.073786896E-1,1.848885945E0
9.417188750E-1,-3.008594182E-1,-1.548875678E0,1.219565463E-1,1.582531408E0
9.516808749E-1,-9.583677817E-3,-1.564820889E0,-2.693712848E-1,1.587865596E0
9.616428750E-1,-5.361858746E-1,-1.578976121E0,-1.607475597E-1,1.675261371E0
9.716058749E-1,-2.098372694E-3,-1.529705143E0,2.520962709E-1,1.550340207E0
9.815678750E-1,3.770271405E-2,-1.373308351E0,3.818044710E-1,1.425893395E0
9.915308750E-1,1.186626087E-1,-1.448605432E0,1.254695535E-1,1.458862955E0
1.001492875E0,7.783143239E-1,-1.916112689E0,-2.154014844E-1,2.079340959E0
1.011455875E0,1.153077436E-2,-2.217453040E0,-2.371443558E-1,2.230127438E0
1.021417875E0,-1.595148204E0,-2.435918904E0,3.979123807E-1,2.938797878E0
1.031380875E0,-1.573879688E0,-2.721800241E0,3.840433699E-1,3.167456888E0
1.041342875E0,-6.514587611E-1,-2.683921978E0,1.555721891E-1,2.766231807E0
1.051305875E0,-6.264201797E-1,-2.748167968E0,-5.670208740E-1,2.875124709E0
1.061267875E0,-1.237281065E0,-2.616064163E0,2.408187461E-1,2.903902514E0
1.071230875E0,-1.371636778E0,-2.384582690E0,4.305129468E-1,2.784414382E0
1.081192875E0,-1.285032497E0,-2.334113325E0,-7.776562929E-2,2.665603314E0
1.091155875E0,-6.257837103E-1,-2.392793642E0,-6.622673392E-2,2.474156957E0
1.101117875E0,3.826026525E-1,-2.295256823E0,3.599154192E-1,2.354597159E0
1.111079875E0,1.740672830E0,-2.933831683E0,-2.884595203E-1,3.423524374E0
1.121042875E0,2.113997231E0,-3.199127458E0,2.068820912E-1,3.840078253E0
1.131004875E0,2.144445583E0,-3.717707074E0,1.919822162E-1,4.296143610E0
1.140967875E0,2.480065821E0,-3.891972812E0,-1.265904647E-1,4.616730877E0
1.150929875E0,3.127155543E0,-3.563565991E0,4.826671869E-1,4.765613494E0
1.160892875E0,3.007124484E0,-3.352114593E0,-3.523122847E-2,4.503411057E0
1.170854875E0,2.449826653E0,-3.225931095E0,1.609241456E-1,4.053909057E0
1.180817875E0,1.909983784E0,-2.730435994E0,-3.391823620E-1,3.349382547E0
1.190779875E0,1.785963316E0,-2.193144557E0,5.593879187E-1,2.883134208E0
1.200742875E0,1.621541805E-1,-2.035637232E0,1.114368206E-1,2.045123733E0
1.210704875E0,-1.819621205E0,-1.666838723E0,-6.126806116E-1,2.542587302E0
1.220667875E0,1.385208129E-1,-1.264729064E0,1.012339556E0,1.625902518E0
1.230629875E0,1.157414165E0,-1.241669400E0,-3.706263489E-1,1.737444773E0
1.240592875E0,8.748394290E-1,-1.049792726E0,-4.638058233E-1,1.443095505E0
1.250554875E0,3.449473146E-1,-6.460492095E-1,8.952087164E-1,1.156618726E0
1.260516875E0,2.963196034E-1,-7.304425847E-1,-6.314297086E-1,1.009977799E0
1.270479875E0,1.324614073E-2,-2.149687539E-1,1.042453301E-1,2.392783196E-1
1.280441875E0,-3.178023103E-1,-1.657095069E-1,4.232577217E-1,5.546215359E-1
1.290404875E0,3.344705660E-1,-1.156357245E-1,-4.202446514E-1,5.494067230E-1
1.300366875E0,7.983590908E-1,1.051207679E-1,2.676907951E-1,8.485787975E-1
1.310329875E0,2.523265343E0,1.248782538E-1,1.051767915E-1,2.528542016E0
1.320291875E0,4.223924799E0,3.677483493E-1,-2.532101655E-1,4.247457468E0
1.330254875E0,3.721852165E0,4.830832893E-1,9.858931839E-2,3.754367172E0
1.340216875E0,3.429155753E0,6.653791543E-1,1.155070674E-1,3.495022243E0
1.350179875E0,3.530474259E0,5.699634853E-1,-1.416815436E-1,3.578991552E0
1.360141875E0,2.507234324E0,3.407252229E-1,9.095343947E-2,2.531914327E0
1.370104875E0,1.655143707E0,-3.392205150E-1,7.078288436E-2,1.691029705E0
1.380066875E0,3.064132864E-3,-4.001152826E-2,-2.249599278E-2,4.600414107E-2
1.390029875E0,-5.764433697E-2,1.486566871E-2,-3.116332054E-2,6.719382589E-2
1.399991875E0,9.612331001E-2,-4.360530009E-2,1.081886923E-1,1.511486225E-1
1.409953875E0,-1.893093626E-2,6.799873263E-3,-4.599010527E-2,5.019669717E-2
1.419916875E0,5.527708258E-2,-3.329885161E-2,1.222600168E-1,1.382457272E-1
1.429878875E0,9.628144065E-3,-8.260800093E-3,-2.803447545E-2,3.077131440E-2
1.439841875E0,3.860583935E-2,-2.042755852E-2,6.013451993E-2,7.432265110E-2
1.449803875E0,1.478023084E-2,-2.539072998E-2,-1.217039466E-2,3.180036004E-2
1.459766875E0,2.473218732E-2,-2.138213474E-2,1.223062098E-2,3.490651608E-2
1.469729125E0,3.571636464E-2,-4.617946370E-2,-6.337797046E-3,5.872281705E-2
1.479692125E0,2.888173243E-2,-3.277490454E-2,-6.036665440E-3,4.409977511E-2
1.489654125E0,4.140894428E-2,-3.874622734E-2,1.417014241E-2,5.845309005E-2
1.499617125E0,5.335930091E-2,-2.420796616E-2,3.841035962E-3,5.871962343E-2
1.509579125E0,5.415251683E-2,-3.006711379E-2,2.479745686E-2,6.671911478E-2
1.519542125E0,4.165621755E-2,-3.760218306E-2,1.012913167E-2,5.702423993E-2
1.529504125E0,4.090797495E-2,-3.351552749E-2,2.015710652E-2,5.659560001E-2
1.539467125E0,3.120564433E-2,-3.802073406E-2,2.938810587E-3,4.927479137E-2
1.549429125E0,4.383740258E-2,-1.321183858E-2,3.017455637E-2,5.483406237E-2
1.559391125E0,1.974641728E-2,-2.466742940E-2,3.780224919E-2,4.926878436E-2
1.569354125E0,1.048007882E-2,-1.157377766E-2,3.510142028E-2,3.841736700E-2
1.579316125E0,2.019576666E-2,-2.309478421E-2,-9.931905091E-2,1.039495643E-1
1.589279125E0,-7.157179252E-3,-3.625010580E-2,1.311928082E-1,1.362969123E-1
1.599241125E0,1.516369399E-2,-1.831601931E-2,4.402953386E-3,2.418264206E-2
1.609204125E0,-2.107391339E-3,-1.859884182E-2,2.307159269E-1,2.314739660E-1
1.619166125E0,1.877625457E-2,-2.843422400E-2,-5.668817103E-2,6.614077082E-2
1.629129125E0,-6.147628051E0,-1.183135775E0,-2.191138816E-1,6.264275841E0
1.639091125E0,-1.239304844E1,-2.109721454E0,9.704799235E-2,1.257171399E1
1.649054125E0,-4.142671013E0,3.816269349E-1,1.473784858E-1,4.162821478E0
1.659016125E0,-1.777376972E0,1.149193638E0,3.227136791E-1,2.140994871E0
1.668979125E0,-1.613947295E0,5.614476004E-1,-2.801284075E-1,1.731623863E0
1.678941125E0,-9.846954549E-1,-2.813008839E-1,-2.302306080E-1,1.049648255E0
1.688904125E0,-1.092202874E0,-7.716140726E-1,3.725278634E-1,1.388190334E0
1.698866125E0,-5.212072085E-1,-1.212558745E0,-1.662006730E-1,1.330254986E0
1.708828125E0,-1.494419828E0,-1.700114642E0,2.648186427E-1,2.278993052E0
1.718791125E0,-8.765601184E-1,-2.090065746E0,4.937213480E-2,2.266973770E0
1.728753125E0,6.087483956E-1,-2.701279145E0,-1.389228272E-1,2.772504857E0
1.738716125E0,1.049901411E0,-3.196366988E0,2.537527871E-1,3.373936184E0
1.748678125E0,1.145190342E0,-3.818217203E0,-8.489923239E-2,3.987160820E0
1.758641125E0,1.375619755E0,-4.111403028E0,6.177174032E-2,4.335871344E0
1.768603125E0,1.273268192E0,-3.976017181E0,4.157627606E-1,4.195567088E0
1.778566125E0,-3.236262467E-1,-3.242233717E0,-1.382866502E-1,3.261278372E0
1.788528125E0,-6.906292588E-1,-2.622068669E0,2.112341738E-1,2.719711888E0
1.798491125E0,3.462752904E-1,-2.397841398E0,2.108915269E-2,2.422807193E0
1.808453125E0,1.720590897E-1,-2.028510061E0,-1.274348027E-1,2.039778671E0
1.818416125E0,-9.579244897E-2,-2.017173041E0,1.307109976E-1,2.023672067E0
1.828378125E0,-1.040213543E-1,-2.094297376E0,2.781520486E-2,2.097063573E0
1.838341125E0,3.496610475E-1,-2.094516208E0,2.649075204E-1,2.139961913E0
1.848303125E0,5.656988917E-1,-2.427129077E0,1.443297476E-1,2.496357721E0
1.858265125E0,1.360358376E0,-3.167809187E0,-4.986885577E-1,3.483429378E0
1.868228125E0,1.573062394E0,-3.177007734E0,2.987541282E-1,3.557689906E0
1.878190125E0,1.704866090E0,-3.268563729E0,3.628863895E-1,3.704289914E0
1.888153125E0,1.978153840E0,-2.866975204E0,1.732734650E-1,3.487500986E0
1.898115125E0,2.052528376E0,-2.321094646E0,-1.604990530E-1,3.102597788E0
1.908078125E0,1.219181301E0,-1.651899379E0,-3.530841172E-2,2.053392629E0
1.918040125E0,7.684794534E-1,-1.510640297E0,2.614179021E-1,1.714915186E0
1.928003125E0,9.498961164E-1,-1.560169868E0,-5.393354774E-2,1.827386515E0
1.937965125E0,6.149945010E-1,-1.550635106E0,1.875494421E-1,1.678648939E0
1.947928125E0,3.808760428E-1,-1.845853423E0,1.588524771E-1,1.891421563E0
1.957890125E0,-1.346398057E-1,-2.117570757E0,-1.598008955E-1,2.127855755E0
1.967853125E0,-4.486866778E-1,-2.043394733E0,1.253643036E-2,2.092113508E0
1.977815125E0,5.553802371E-1,-1.902420702E0,3.311149585E-1,2.009300588E0
1.987777125E0,1.288111641E0,-1.959618020E0,-5.262453157E-1,2.403386884E0
1.997740125E0,5.727503048E-1,-1.368088249E0,6.051529062E-1,1.601848435E0
2.007702125E0,6.898102831E-1,-1.461370927E0,-2.625323814E-1,1.637182477E0
2.017665125E0,8.605405017E-1,-1.230420673E0,-1.459289610E-2,1.501558504E0
2.027627125E0,1.395848344E0,-1.035359751E0,1.330533922E-2,1.737969921E0
2.037590125E0,2.058926692E0,-9.749373291E-1,2.989862627E-1,2.297623708E0
2.047552125E0,2.642863122E0,-1.190327265E0,-1.570316541E-1,2.902802684E0
2.057515125E0,2.773531727E0,-9.782983086E-1,2.837437409E-1,2.954666874E0
2.067477125E0,3.295053662E0,-1.005386193E0,1.193334854E-1,3.447088701E0
2.077440125E0,3.574644126E0,-9.013135750E-1,-3.302238429E-1,3.701282828E0
2.087402125E0,3.269717969E0,-4.607986003E-1,3.369054562E-1,3.319171016E0
2.097365125E0,3.286064445E0,-3.994244341E-1,-1.819507331E-1,3.315247425E0
2.107327125E0,3.016090313E0,9.321950963E-2,1.648511356E-1,3.022030203E0
2.117290125E0,2.572887446E0,4.360052731E-1,1.708673358E-2,2.609624947E0
2.127252125E0,2.245827385E0,5.599373012E-1,-1.263361108E-1,2.318023132E0
2.137214125E0,1.832606702E0,8.908082481E-1,7.452861071E-2,2.039004946E0
2.147177125E0,1.075241563E0,8.994274094E-1,-1.145323366E-1,1.406496263E0
2.157139125E0,1.144603610E-1,9.445413825E-1,9.172761083E-2,9.558627266E-1
2.167102125E0,1.433946042E-2,5.422573676E-1,-1.485338956E-1,5.624153189E-1
2.177064125E0,2.259354992E-1,4.444095492E-1,1.475422078E-1,5.199186478E-1
2.187027125E0,9.093981729E-2,3.631580658E-1,-8.628736138E-2,3.841865951E-1
2.196989125E0,1.080542429E-1,5.934881495E-1,-4.662628233E-2,6.050437283E-1
2.206952125E0,1.849294144E-1,4.919347313E-1,1.234113336E-1,5.398416670E-1
2.216914125E0,8.411572376E-2,3.518279891E-1,-3.751515090E-2,3.636836200E-1
2.226877125E0,1.132053567E-1,5.247293885E-1,4.766123950E-2,5.389137015E-1
2.236839125E0,1.361398815E-1,2.940582476E-1,1.045382756E-1,3.404887243E-1
2.246802125E0,7.200274602E-2,3.780050965E-1,-1.099662459E-1,4.002059765E-1
2.256764125E0,1.380843548E-1,2.431161902E-1,9.555578291E-2,2.954719591E-1
2.266727125E0,8.150558151E-2,-1.812659693E-2,2.849699020E-2,8.822591334E-2
2.276689125E0,9.026765244E-2,2.515473087E-2,1.015468401E-1,1.381765910E-1
2.286651125E0,6.405423749E-2,1.724866491E-2,4.101237059E-3,6.646263557E-2
2.296614125E0,5.055172834E-2,8.804792147E-3,1.383392751E-2,5.314488830E-2
2.306576125E0,3.845690894E-2,4.975158256E-3,-2.523307443E-2,4.626439333E-2
2.316539125E0,3.322909843E-2,1.871315489E-2,-1.984428048E-2,4.299012231E-2
2.326501125E0,1.417860489E-2,1.383471323E-2,-5.625021458E-3,2.059303264E-2
2.336464125E0,4.529486219E-3,1.886073313E-2,-2.792981029E-2,3.400467324E-2
2.346426125E0,1.994889539E-3,3.236938186E-2,-2.134584546E-2,3.882526992E-2
2.356389125E0,1.800271818E-2,4.787636222E-2,-2.792922556E-2,5.827765920E-2
2.366351125E0,2.695284790E-2,3.982438082E-2,5.003462434E-3,4.834740897E-2
2.376314125E0,5.759555840E-2,4.113684319E-2,2.566226006E-2,7.528638526E-2
2.386276125E0,9.097856423E-2,2.394397351E-2,3.000381768E-2,9.874533960E-2
2.396239125E0,9.209118887E-2,3.083836153E-2,2.700945854E-2,1.008032860E-1
2.406201125E0,8.835403235E-2,3.882189397E-2,-2.978127265E-1,3.130590911E-1
2.416164125E0,1.308314776E-1,3.595737043E-2,3.683038348E-1,3.925016213E-1
2.426126125E0,5.739155910E-2,1.583595020E-2,7.207394958E-2,9.348380919E-2
2.436088125E0,1.032604397E-1,1.283918822E-2,2.157844770E-1,2.395631517E-1
2.446051125E0,7.425989003E-2,-6.777891386E-3,-2.000466961E-1,2.134927439E-1
2.456013125E0,6.312571792E-2,-3.880696530E-3,2.253692329E-2,6.714036774E-2
2.465976375E0,-2.400221653E0,5.626771968E-2,-1.157853949E-1,2.403671420E0
2.475938375E0,-4.345518526E0,-1.804483641E0,1.599412286E-1,4.708001026E0
2.485901375E0,-4.547221153E0,-2.077792148E0,4.181209427E-1,5.016898001E0
2.495863375E0,-4.997457928E0,-1.798825144E0,-3.807776999E-1,5.324974113E0
2.505826375E0,-3.311438730E0,-2.351078875E0,2.934039259E-1,4.071766718E0
2.515788375E0,-2.003355047E0,-2.671446944E0,-4.137548268E-1,3.364707011E0
2.525751375E0,-4.291706819E-1,-2.492445838E0,1.197229099E-1,2.531957209E0
2.535713375E0,2.786450968E-1,-2.511843099E0,1.207391560E-1,2.530133749E0
2.545676375E0,6.222349620E-1,-2.279119092E0,-3.226376653E-2,2.362752872E0
2.555638375E0,8.459582037E-1,-1.885923368E0,2.476553106E-1,2.081750558E0
2.565600375E0,7.493578888E-1,-1.830486940E0,-7.478004098E-2,1.979346290E0
2.575563375E0,1.201584983E0,-1.612636203E0,-5.321375549E-2,2.011773769E0
2.585525375E0,1.333244399E0,-1.278502912E0,2.748279065E-1,1.867522610E0
2.595488375E0,1.290177170E0,-8.231164943E-1,3.074039143E-1,1.560953254E0
2.605450375E0,1.419139704E0,-8.146449021E-1,-1.115718913E-1,1.640137831E0
2.615413375E0,1.194792491E0,-4.462027806E-1,-2.632299542E-2,1.275664109E0
2.625375375E0,7.095577922E-1,-2.710362795E-1,2.949943686E-1,8.148340952E-1
2.635338375E0,1.644203785E-1,-5.424863226E-1,-3.692890906E-1,6.765352197E-1
2.645300375E0,4.521471697E-1,-7.746517377E-2,2.466659617E-1,5.208473988E-1
2.655263375E0,5.725452137E-1,-8.197145111E-1,2.015418291E-2,1.000073044E0
2.665225375E0,2.559433734E-1,-1.459921402E0,-2.815919656E-1,1.508698626E0
2.675188375E0,1.319644213E-1,-1.482518990E0,3.834674191E-1,1.536985500E0
2.685150375E0,1.083036084E-1,-2.028767484E0,-6.912344456E-2,2.032831825E0
2.695113375E0,4.124547715E-1,-1.442336047E0,-1.929984623E-1,1.512514667E0
2.705075375E0,7.504677634E-1,-1.357492217E0,1.613743812E-1,1.559496289E0
2.715037375E0,6.006075731E-1,-1.844466463E0,4.114685655E-2,1.940226547E0
2.725000375E0,2.964327653E-1,-2.271256780E0,2.915772557E-1,2.309003474E0
2.734962375E0,6.259206356E-2,-2.307649850E0,-1.373581123E-1,2.312581425E0
2.744925375E0,3.219583284E-1,-2.254588415E0,-3.019443691E-2,2.277660596E0
2.754887375E0,5.928309225E-1,-2.085151893E0,2.064470583E-1,2.177596681E0
2.764850375E0,6.311240454E-1,-1.775954053E0,1.228125787E-1,1.888759722E0
2.774812375E0,7.890414065E-1,-1.754632473E0,1.723215383E-1,1.931583850E0
2.784775375E0,6.222185898E-1,-1.996968279E0,-1.510739261E-1,2.097107916E0
2.794737375E0,7.104128744E-1,-1.861587110E0,2.453982854E-1,2.007588937E0
2.804700375E0,1.280901001E0,-1.804678353E0,-6.083033860E-2,2.213881583E0
2.814662375E0,9.727904508E-1,-1.707232312E0,1.357068586E-1,1.969614119E0
2.824625375E0,1.045540119E0,-1.490967924E0,3.081301385E-1,1.846911929E0
2.834587375E0,1.550880689E0,-1.483428232E0,-1.886726922E-1,2.154387991E0
2.844550375E0,2.262793959E0,-1.217907339E0,6.231611609E-2,2.570489853E0
2.854512375E0,2.417861972E0,-9.068783701E-1,1.884446508E-1,2.589207654E0
2.864474375E0,3.031381951E0,-8.437654247E-1,-2.814112866E-1,3.159178522E0
2.874437375E0,3.302199252E0,-3.620086493E-1,1.236984318E-1,3.324285106E0
2.884399375E0,2.961388148E0,-1.164380904E-1,-4.579539299E-3,2.963679903E0
2.894362375E0,2.773120084E0,2.622512583E-1,1.766677737E-2,2.785548929E0
2.904324375E0,2.411814050E0,5.828695328E-1,8.114298105E-2,2.482572877E0
2.914287375E0,1.363848725E0,6.018093221E-1,-1.994824398E-1,1.504011652E0
2.924249375E0,2.684658252E-1,7.943718014E-1,2.715920573E-1,8.813981528E-1
2.934212375E0,-2.751850891E-2,2.006746139E-1,-1.996157563E-1,2.843835775E-1
2.944174375E0,2.128881318E-1,6.564731871E-1,2.630896211E-1,7.385760291E-1
2.954137375E0,6.238007002E-2,3.089433400E-1,-1.451197064E-1,3.469826936E-1
2.964099375E0,6.800035888E-2,5.708116239E-1,2.017055511E-2,5.752015387E-1
2.974062375E0,1.485358965E-1,5.943828100E-1,7.601731181E-2,6.173592707E-1
2.984024375E0,3.312190938E-2,5.325277834E-1,-5.915335715E-2,5.368258756E-1
2.993986375E0,5.182505091E-2,6.649811782E-1,3.601475537E-2,6.679692103E-1
3.003949375E0,5.011344298E-2,5.251461853E-1,-1.635466218E-2,5.277853239E-1
3.013911375E0,7.702070315E-2,3.721929641E-1,4.320390701E-2,3.825262982E-1
3.023874375E0,-2.735975472E-2,3.078882100E-1,-1.466148394E-1,3.421105335E-1
3.033836375E0,8.608884841E-2,-1.063170900E-1,1.214940315E-1,1.829628737E-1
3.043799375E0,9.493550754E-3,-2.538981635E-2,-4.452479303E-2,5.212703209E-2
3.053761375E0,4.931263939E-2,-2.092371304E-2,1.760830522E-2,5.638785847E-2
3.063724375E0,4.151779843E-2,-1.570980566E-2,2.779181600E-3,4.447751601E-2
3.073686375E0,3.865237953E-2,-1.327244863E-2,-1.502442062E-2,4.354190569E-2
3.083649375E0,3.927081395E-2,-1.380898548E-2,2.508864820E-2,4.860375682E-2
3.093611375E0,1.144419788E-2,-2.395019531E-2,1.117636800E-2,2.880091530E-2
3.103574375E0,1.443834689E-2,-2.114879429E-2,5.847391069E-2,6.383522219E-2
3.113536375E0,-1.680983137E-3,3.442529943E-3,1.402045369E-2,1.453443630E-2
3.123498375E0,-1.247982885E-2,-1.684041962E-2,3.827119589E-2,4.363519561E-2
3.133461375E0,-2.132922201E-2,-2.046379298E-2,1.686629355E-2,3.403196134E-2
3.143423375E0,5.896656602E-3,-1.891799016E-2,3.362909138E-2,3.903302061E-2
3.153386375E0,5.326781482E-3,-2.346193453E-2,-1.295251822E-1,1.317406915E-1
3.163348375E0,2.251294285E-2,-3.563656842E-2,1.188037276E-1,1.260599988E-1
3.173311375E0,3.645180048E-2,-1.259819157E-2,7.733585894E-2,8.641922973E-2
3.183273375E0,3.684351139E-2,-2.641662396E-2,1.939398640E-1,1.991681531E-1
3.193236375E0,5.252136750E-2,-2.166090075E-2,3.586974442E-2,6.718874333E-2
3.203198375E0,-1.743904879E0,-4.876858521E-1,-2.342341965E-1,1.825899059E0
3.213161375E0,-1.135045832E1,-1.738747781E0,-1.945222467E-1,1.148451073E1
3.223123375E0,-5.699944755E0,-3.928880145E-1,8.552020669E-1,5.777118813E0
3.233086375E0,-1.841668132E0,1.177809765E0,-2.580598462E-1,2.201266053E0
3.243048375E0,-1.022074877E0,1.647160942E0,-7.735223114E-2,1.940041131E0
3.253011375E0,-1.291940252E0,1.236310135E0,1.083845741E-1,1.791457390E0
3.262973375E0,-1.615051980E0,-2.780831611E-1,1.150848985E-2,1.638858014E0
3.272935375E0,-2.840465975E0,-2.487887934E0,-4.144366121E-1,3.798630152E0
3.282898375E0,-3.426296757E0,-3.405033064E0,4.545467573E-1,4.851842164E0
3.292860375E0,-3.690076057E0,-4.177333600E0,4.106031775E-1,5.588861448E0
3.302823375E0,-2.412190465E0,-4.905825042E0,-8.865840733E-2,5.467507887E0
3.312785375E0,-1.076488043E0,-5.461484191E0,-1.633419693E-2,5.566588083E0
3.322748375E0,4.742097010E-1,-5.352448238E0,3.425731623E-1,5.384322924E0
3.332710375E0,5.244330077E-1,-4.766702240E0,-9.482371151E-2,4.796401960E0
3.342673375E0,4.297237774E0,-4.378328715E0,2.307591963E-1,6.139158299E0
3.352635375E0,6.172399195E0,-3.046671543E0,-3.288193417E-1,6.891214804E0
3.362598375E0,4.310160705E0,-1.941241537E0,9.316894948E-1,4.818085649E0
3.372560375E0,4.752499938E0,-2.297554340E0,-7.154512739E-1,5.326995601E0
3.382523375E0,3.738100116E0,-1.611333151E0,1.328785604E-1,4.072768556E0
3.392485375E0,1.420550930E0,-9.068791010E-1,1.330650866E-1,1.690591898E0
3.402447375E0,1.040483959E0,-2.647492253E-1,-1.271933126E-1,1.081146225E0
3.412410375E0,6.872760998E-1,-6.197330115E-1,2.687263370E-2,9.258183307E-1
3.422372375E0,6.766590911E-1,-7.386953449E-1,4.603939730E-1,1.102497596E0
3.432335375E0,1.523566444E0,-1.229011786E0,-3.195976979E-1,1.983397935E0
3.442297375E0,1.272995419E0,-8.374632957E-1,2.805394667E-1,1.549375520E0
3.452260375E0,1.759011453E0,-9.484778742E-1,-2.527488202E-1,2.014351890E0
3.462222375E0,1.967733078E0,-1.223362133E-1,3.689616466E-1,2.005759784E0
3.472185000E0,2.353056696E0,-2.882629808E-1,-3.815091866E-1,2.401149854E0
3.482147000E0,2.141168219E0,2.797615495E-1,4.575791234E-1,2.207316588E0
3.492110000E0,1.599523822E0,-3.378242730E-1,-1.412418330E-1,1.640899434E0
3.502072000E0,1.202699243E0,-7.241986354E-1,-5.761203110E-2,1.405086573E0
3.512035000E0,5.454779774E-1,-7.702356646E-1,3.054766721E-1,9.920308463E-1
3.521997000E0,2.974963190E-1,-7.403479873E-1,-3.904770613E-1,8.883082446E-1
3.531959000E0,3.204250058E-1,1.254237990E0,2.938629323E-1,1.327456419E0
3.541922000E0,3.853937843E-1,8.062890847E-1,5.973515511E-3,8.936812295E-1
3.551884000E0,1.155364862E-1,8.144039968E-1,-2.043730509E-1,8.475676336E-1
3.561847000E0,2.711107219E-1,1.388026816E0,1.361483234E-1,1.420794085E0
3.571809000E0,2.907069525E-1,8.615150133E-1,2.416069508E-2,9.095616469E-1
3.581772000E0,3.795481127E-2,7.302926036E-1,-1.866168112E-1,7.547143094E-1
3.591734000E0,1.674176065E-1,1.013397098E0,1.480778128E-1,1.037752076E0
3.601697000E0,1.205704730E-1,6.349073401E-1,7.658098340E-3,6.462996333E-1
3.611659000E0,6.467156185E-2,7.742793797E-1,5.555439591E-3,7.769953871E-1
3.621622000E0,1.125903210E-1,7.811931275E-1,4.746418834E-2,7.906909206E-1
3.631584000E0,5.424053569E-2,6.691688810E-1,-1.188154221E-3,6.713646093E-1
3.641547000E0,3.430788460E-2,1.425331723E-1,-1.016889274E-2,1.469562606E-1
3.651509000E0,6.710933915E-2,-2.183622586E-2,1.308367127E-1,1.486564144E-1
3.661472000E0,-2.095358865E-3,8.456128160E-2,-9.309878290E-2,1.257870592E-1
3.671434000E0,7.900127387E-2,3.817034969E-2,1.504435962E-1,1.741592734E-1
3.681396000E0,-1.387753952E-2,3.455996811E-2,-1.932393676E-1,1.967954031E-1
3.691359000E0,5.974424113E-2,3.321996901E-2,7.530161262E-2,1.017018857E-1
3.701321000E0,4.635700435E-2,3.424831152E-2,1.002972901E-1,1.156782827E-1
3.711284000E0,4.436714204E-2,4.370768119E-2,6.930938601E-2,9.318044686E-2
3.721246000E0,4.933354775E-2,3.372469336E-2,-3.816594601E-2,7.090693415E-2
3.731209000E0,5.427526267E-2,2.916828711E-2,-6.391416013E-2,8.877844883E-2
3.741171000E0,8.897874339E-2,6.643694133E-2,2.266287231E-1,2.523720708E-1
3.751134000E0,2.471829104E-2,4.752362894E-2,-9.205856323E-2,1.065094751E-1
3.761096000E0,1.560704084E-2,2.066449866E-2,-1.152486205E-2,2.834472921E-2
3.771059000E0,-3.376323930E-2,6.575120911E-3,-5.193730831E-2,6.229504425E-2
3.781021000E0,-3.193762437E-2,7.733892873E-3,2.396072030E-2,4.066867427E-2
3.790984000E0,-4.262445251E-2,3.597510394E-2,-3.530899644E-2,6.601346290E-2
3.800946000E0,-4.390970706E-2,4.487480370E-2,-9.233221292E-2,1.116559355E-1
3.810908000E0,-1.134269387E-2,6.389067991E-2,-3.858577609E-3,6.500434066E-2
3.820871000E0,4.137001005E-3,5.451499851E-2,-2.659606040E-2,6.079761730E-2
3.830833000E0,3.454907311E-2,5.953603914E-2,5.724014819E-2,8.952437084E-2
3.840796000E0,4.713454699E-2,6.460049534E-2,-1.475252509E-2,8.131744287E-2
3.850758000E0,4.740621868E-2,1.389775353E-2,-3.016753972E-2,5.788417378E-2
3.860721000E0,1.341617319E-1,1.605110032E-2,3.519877642E-1,3.770310256E-1
3.870683000E0,-3.504189563E-1,1.574450888E-1,-4.674012762E-1,6.050176476E-1
3.880646000E0,-2.883204443E0,-2.841653617E-2,5.003181767E-1,2.926430187E0
3.890608000E0,-5.649510766E0,-1.497353669E0,4.025416213E-1,5.858419553E0
3.900571000E0,-4.525665978E0,-4.221080129E-1,-7.499457532E-1,4.606760939E0
3.910533000E0,-4.680665724E0,-7.029602326E-1,2.900335908E-2,4.733246867E0
3.920496000E0,-3.526532943E0,-8.658703119E-1,4.163644391E-1,3.655068446E0
3.930458000E0,-2.241132217E0,-3.615207723E-1,-1.443560600E-2,2.270149614E0
3.940421000E0,-1.670722005E0,-5.474875923E-1,-5.388209224E-2,1.758965025E0
3.950383000E0,-1.790522098E0,-1.450502707E0,-4.000197172E-2,2.304675171E0
3.960345000E0,-1.238601074E0,-1.433310870E0,-5.072284162E-2,1.895015957E0
3.970308000E0,-1.460921714E0,-1.760114238E0,1.492805851E-1,2.292286867E0
3.980270000E0,-9.762520024E-1,-2.913321404E0,1.385854429E-1,3.075665051E0
3.990233000E0,-3.861307528E-1,-3.677068633E0,4.100780976E-1,3.719958970E0
4.000195000E0,4.799040577E-2,-3.978054644E0,5.439278805E-1,4.015355447E0
4.010158000E0,2.210857089E-1,-4.225187505E0,3.385163641E-1,4.244488388E0
4.020120000E0,7.033710726E-1,-4.353176332E0,-1.794319280E0,4.760720189E0
4.030083000E0,3.636200689E-1,-3.527045159E0,1.175559318E-1,3.547687487E0
4.040045000E0,7.968538713E-1,-2.883511130E0,9.244301766E-1,3.131163311E0
4.050008000E0,1.487305521E0,-2.412308578E0,5.691720647E-1,2.890547912E0
4.059970000E0,1.715601139E0,-2.035738681E0,7.775539666E-1,2.773465236E0
4.069933000E0,2.334879603E0,-1.898794552E0,-1.476670459E0,3.352258813E0
4.079895000E0,2.293375774E0,-1.223260172E0,-5.396471339E-1,2.654648172E0
4.089857000E0,8.650282397E-1,-8.643895776E-1,1.473651541E0,1.914965290E0
4.099820000E0,1.505413617E0,-1.445294154E0,4.254042345E-1,2.129815511E0
4.109782000E0,2.143268246E0,-2.640547332E0,-1.189980306E0,3.603073982E0
4.119745000E0,4.922000122E-1,-1.498107813E0,4.217579108E-1,1.632319701E0
4.129707000E0,-1.520520922E-1,-9.478175774E-1,6.301076531E-1,1.148265498E0
4.139670000E0,-1.493720483E-1,-1.569803594E0,-1.146999178E0,1.949923703E0
4.149632000E0,-1.096213186E0,-1.180960391E0,8.214238715E-1,1.808614932E0
4.159595000E0,1.855601097E-1,-1.204007849E0,-1.711748993E-1,1.230190352E0
4.169557000E0,6.679591651E-1,-1.465362236E0,-2.391616452E-1,1.628082990E0
4.179520000E0,5.375047507E-2,-1.300072267E0,5.092117918E-1,1.397273653E0
4.189482000E0,1.016229343E0,-1.320115938E0,-4.414162499E-1,1.723449005E0
4.199445000E0,6.739424930E-2,-1.132598948E0,2.924771422E-1,1.171693321E0
4.209407000E0,-2.022477525E-1,-1.347516867E0,-1.434146583E-2,1.362685414E0
4.219370000E0,-2.040721203E-1,-1.173504972E0,-9.162586927E-4,1.191117202E0
4.229332000E0,7.671405324E-3,-1.506195682E0,2.578318048E-1,1.528123530E0
4.239294000E0,4.622552148E-1,-1.858792434E0,7.204062045E-2,1.916762647E0
4.249257000E0,8.266797144E-1,-1.638572990E0,2.299838555E-1,1.849652229E0
4.259219000E0,1.074800756E0,-1.681024945E0,9.335839927E-2,1.997437689E0
4.269182000E0,1.367142754E0,-1.668099090E0,-2.436634165E-1,2.170485140E0
4.279144000E0,2.131710347E0,-1.244848239E0,3.950642020E-1,2.499982373E0
4.289107000E0,2.200773858E0,-8.617794536E-1,-3.208279520E-1,2.385162463E0
4.299069000E0,2.609205964E0,-3.424431714E-1,-9.711640477E-2,2.633373252E0
4.309032000E0,2.482160586E0,3.130250255E-2,5.086071897E-1,2.533926261E0
4.318994000E0,3.046948116E0,-9.851392586E-2,-3.821289915E-1,3.072396521E0
4.328957000E0,3.134785282E0,1.170786163E-2,1.865671098E-2,3.134862662E0
4.338919000E0,2.627490500E0,-1.507524206E-1,3.788750160E-1,2.658943192E0
4.348882000E0,1.723096392E0,-3.779070460E-1,-4.212913030E-1,1.813659636E0
4.358844000E0,-2.952407191E-2,-4.952103781E-2,7.213008285E-2,9.234041834E-2
4.368806000E0,9.021377583E-2,-3.256966727E-2,2.430576450E-1,2.612973925E-1
4.378769000E0,-1.233723217E-2,6.347956583E-3,-2.527271855E-1,2.531077520E-1
4.388731000E0,1.090747830E-1,-4.120216755E-2,1.128436607E-1,1.622609586E-1
4.398694000E0,1.149760398E-2,-1.081647187E-2,-4.031772137E-2,4.329791701E-2
4.408656000E0,2.970274089E-2,-2.236066628E-2,6.709679961E-3,3.777925381E-2
4.418619000E0,6.893256037E-2,-4.544180090E-2,1.598313010E-1,1.798963588E-1
4.428581000E0,-3.400352789E-2,-3.869767718E-2,-3.036459088E-3,5.160397477E-2
4.438544000E0,2.879579663E-2,-7.818070851E-2,1.415733701E-1,1.642694135E-1
4.448506000E0,-1.095847699E-2,-6.299994797E-2,-4.211106241E-2,7.656646288E-2
4.458469000E0,9.725203277E-3,-5.167533478E-2,2.346253753E-2,5.757960117E-2
4.468430625E0,6.035155213E-2,-1.294379856E-2,1.277873898E-1,1.419135961E-1
4.478393625E0,6.377818496E-2,1.378563317E-2,-1.651429117E-2,6.730841234E-2
4.488355625E0,8.542129738E-2,1.765036862E-3,-4.360210240E-2,9.592213892E-2
4.498318625E0,8.401214582E-2,6.149516702E-3,-8.028285563E-2,1.163666366E-1
4.508280625E0,9.279103663E-2,-2.446858753E-3,-6.336861491E-2,1.123910359E-1
4.518242625E0,9.167054566E-2,-2.363994570E-2,8.166806102E-3,9.502122234E-2
4.528205625E0,7.937484699E-2,-4.620716488E-2,3.764963686E-2,9.926209537E-2
4.538167625E0,6.893286187E-2,-4.986733915E-2,4.737063289E-2,9.737796373E-2
4.548130625E0,4.485834927E-2,-6.999287071E-2,5.599293709E-3,8.332241919E-2
4.558092625E0,4.821220254E-2,-7.766249903E-2,5.903641284E-2,1.088171782E-1
4.568055625E0,3.207668760E-2,-4.774832647E-2,5.513690472E-2,7.967995250E-2
4.578017625E0,2.620130482E-2,-2.088333070E-2,6.651090860E-2,7.447363855E-2
4.587980625E0,3.967067671E-2,-1.368650459E-2,4.135794103E-2,5.891996508E-2
4.597942625E0,6.788165127E-3,-1.088082779E-2,-6.986896455E-2,7.103621476E-2
4.607905625E0,1.305921255E-2,-1.159853697E-2,-1.718672097E-2,2.450413169E-2
4.617867625E0,1.836449638E-2,-1.275716275E-3,1.101825929E-1,1.117098292E-1
4.627830625E0,-3.163173733E-2,1.416500783E-2,1.024262613E-1,1.081311854E-1
4.637792625E0,-1.281967972E0,1.766451889E-1,-3.362850666E-1,1.337061348E0
4.647754625E0,-3.865758575E0,5.325189761E-1,2.427869189E-1,3.909809625E0
4.657717625E0,-4.498297208E0,5.127427791E-1,-1.356074560E-1,4.529456072E0
4.667679625E0,-5.514744140E0,2.978848848E-1,1.485894442E-2,5.522803556E0
4.677642625E0,-4.856246793E0,-1.128468913E0,4.143746316E-1,5.002827334E0
4.687604625E0,-3.134066367E0,-2.994435442E0,4.916315532E-1,4.362421024E0
4.697567625E0,-1.939328620E0,-4.917290847E0,-9.911849141E-2,5.286829792E0
4.707529625E0,-2.794698648E0,-5.435886251E0,-9.603420210E-1,6.187201036E0
4.717492625E0,-2.159363877E0,-5.549653187E0,4.538778359E-1,5.972228055E0
4.727454625E0,-2.270606862E0,-4.805183351E0,9.473658800E-1,5.398420572E0
4.737417625E0,-9.782136702E-1,-3.828024445E0,-3.343268341E-1,3.965154167E0
4.747379625E0,-2.408309887E-1,-3.209284949E0,-2.374226832E-1,3.227054226E0
4.757342625E0,-6.555872608E-1,-3.425654148E0,8.259484470E-1,3.584284006E0
4.767304625E0,-4.012810713E-1,-4.304842370E0,3.742586392E-1,4.339673243E0
4.777266625E0,1.173817506E0,-4.014693882E0,-9.998469794E-1,4.300617221E0
4.787229625E0,2.861390528E0,-3.367129074E0,1.363097066E0,4.624191558E0
4.797191625E0,4.032913513E0,-3.233183396E0,-8.001698273E-1,5.230500744E0
4.807154625E0,6.136186219E0,-2.741981321E0,2.466086590E-1,6.725478326E0
4.817116625E0,6.384045013E0,-2.577343609E0,3.653948450E-1,6.894363219E0
4.827079625E0,3.155569502E0,-3.038679276E0,-5.834942347E-1,4.419463333E0
4.837041625E0,2.050472203E0,-2.943124663E0,6.321214342E-1,3.642251576E0
4.847004625E0,2.621145101E0,-2.836614706E0,-3.418299812E-1,3.877322835E0
4.856966625E0,2.705695547E0,-1.968580632E0,2.695572263E-1,3.356897258E0
4.866929625E0,1.904482577E0,-1.607283077E0,1.562668383E-2,2.492118972E0
4.876891625E0,9.116328873E-1,-1.477720326E0,-2.903025627E-1,1.760399802E0
4.886854625E0,-5.059662399E-2,-1.392881174E0,3.376386970E-1,1.434112225E0
4.896816625E0,5.745594699E-1,-1.624692723E0,-3.946560663E-1,1.767907927E0
4.906778625E0,-1.447391257E-1,-1.281108285E0,4.159182966E-1,1.354686636E0
4.916741625E0,2.358561456E-2,-1.423536664E0,2.959807938E-1,1.454172461E0
4.926703625E0,7.570357215E-1,-1.854914853E0,1.912770420E-1,2.012560335E0
4.936666625E0,1.208714712E0,-2.083368492E0,1.491384977E-1,2.413225605E0
4.946628625E0,7.442223524E-1,-2.162262634E0,-2.562951565E-2,2.286898222E0
4.956591625E0,1.114117799E0,-2.201627405E0,-1.550488633E-1,2.472339348E0
4.966553625E0,1.648296032E0,-2.644046306E0,8.467820764E-2,3.116894461E0
4.976516625E0,1.488204238E0,-2.793502893E0,3.781306654E-1,3.187694004E0
4.986478625E0,1.397899255E0,-2.674711736E0,1.548471344E-1,3.021950171E0
4.996441625E0,1.263504365E0,-2.651142487E0,-1.923845047E-1,2.943129553E0
5.006403625E0,1.508445691E0,-2.309333848E0,-1.898532450E-2,2.758403826E0
5.016366625E0,1.615982565E0,-1.636848792E0,-7.557526231E-3,2.300158850E0
5.026328625E0,1.831855773E0,-9.307179800E-1,-8.758485854E-2,2.056599776E0
5.036290625E0,1.825654801E0,-5.746528061E-1,2.355129826E-1,1.928395101E0
5.046253625E0,2.884246417E0,-2.356460799E-1,7.063962758E-2,2.894718713E0
5.056215625E0,4.198348786E0,2.036315143E-1,-2.051559931E-1,4.208287930E0
5.066178625E0,3.604015275E0,5.877979681E-1,2.353317189E-1,3.659209419E0
5.076140625E0,3.524516531E0,9.791173574E-1,-1.181231117E-1,3.659896262E0
5.086103625E0,3.058368021E0,1.167882436E0,-6.351596475E-2,3.274385226E0
5.096065625E0,2.525711818E0,1.295245829E0,1.302975994E-1,2.841453749E0
5.106028625E0,2.291082349E0,1.506217024E0,-1.054831856E-1,2.743879509E0
5.115990625E0,1.581848712E0,1.555865002E0,3.028506875E-1,2.239348073E0
5.125953625E0,1.164369648E0,1.513088672E0,-2.278127843E-1,1.922782533E0
5.135915625E0,5.129488935E-1,1.516730318E0,1.261916846E-1,1.606085853E0
5.145878625E0,8.781324713E-2,8.686310016E-1,9.624049187E-2,8.783468652E-1
5.155840625E0,3.131311890E-2,6.784888311E-1,-5.701619983E-3,6.792349474E-1
5.165803625E0,6.015876304E-2,6.589559148E-1,9.907639146E-2,6.690725714E-1
5.175765625E0,-9.775037086E-2,3.312791191E-1,-2.263480568E-1,4.129581487E-1
5.185727625E0,-4.351372722E-2,-9.391689973E-2,-7.695520520E-2,1.289803556E-1
5.195690625E0,-8.693766313E-2,-2.692427192E-2,-1.850287074E-1,2.062006213E-1
5.205652625E0,-5.033215625E-2,-8.700784799E-3,2.109850824E-2,5.526460584E-2
5.215615625E0,-3.491620059E-2,1.951126328E-2,4.116147459E-2,5.739422835E-2
5.225577625E0,1.706388833E-2,4.521017807E-2,1.242474854E-2,4.989499836E-2
5.235540625E0,6.810959675E-2,8.761509961E-2,-8.529333472E-3,1.113017178E-1
5.245502625E0,8.707647968E-2,8.856741004E-2,-3.546804070E-2,1.291684224E-1
5.255465625E0,1.057255162E-1,6.821882548E-2,1.140739149E-1,1.698368363E-1
5.265427625E0,1.020100035E-1,4.588878399E-2,1.967032582E-1,2.262829934E-1
5.275390625E0,1.094330164E-1,1.990832577E-2,1.491004908E-1,1.860185014E-1
5.285352625E0,6.752721407E-2,5.034617130E-3,-1.403331757E-4,6.771478201E-2
5.295315625E0,5.904716166E-2,-1.236326141E-2,-5.163383782E-2,7.940699428E-2
5.305277625E0,5.624601646E-2,-5.556590762E-3,2.381278574E-2,6.133138539E-2
5.315239625E0,5.207245208E-2,5.644390360E-4,7.681370258E-2,9.280195990E-2
5.325202625E0,3.645202203E-2,3.129802577E-2,8.835259795E-2,1.005708601E-1
5.335164625E0,2.357039125E-2,4.735016763E-2,8.880166411E-3,5.363263068E-2
5.345127625E0,1.353278677E-3,4.185822515E-2,-1.135581905E-1,1.210347264E-1
5.355089625E0,2.552259383E-3,4.236742627E-2,6.799142361E-3,4.298535999E-2
5.365052625E0,-2.390504841E-2,5.811511092E-3,1.473439872E-2,2.867625336E-2
5.375014625E0,-4.350342150E-2,-1.014305536E-2,3.675091982E-2,5.784513257E-2
5.384977625E0,-7.983766325E-2,2.510240743E-2,-2.213165277E-1,2.366118948E-1
5.394939625E0,2.127635496E-2,-9.095332984E-2,2.750647187E-1,2.904923252E-1
5.404902625E0,-2.426836059E-1,-6.551726932E-1,-2.386757416E-1,7.383174792E-1
5.414864625E0,-2.042104252E0,-2.524127880E-2,-2.349265069E-1,2.055727940E0
5.424827625E0,-4.764358384E0,1.224570460E0,2.193933785E-1,4.924105713E0
5.434789625E0,-5.019698982E0,1.941000777E0,-3.036932713E-1,5.390463013E0
5.444751625E0,-4.268831415E0,1.343431856E0,-1.575883090E-1,4.478009031E0
5.454714625E0,-3.300751189E0,-2.272194747E-1,2.617383295E-1,3.318899525E0
5.464676625E0,-2.234057379E0,-9.387000141E-1,2.219579673E-1,2.433399973E0
5.474639417E0,-1.068850995E0,-1.302176241E0,3.926738602E-1,1.729826053E0
5.484601417E0,-5.570154110E-1,-1.976696275E0,2.362199110E-1,2.067218948E0
5.494564417E0,-1.812696603E-1,-3.291586556E0,5.350523919E-1,3.339712833E0
5.504526417E0,9.956795043E-2,-4.104180547E0,7.307113373E-1,4.169910167E0
5.514489417E0,3.677237910E-1,-4.657934381E0,1.493072484E0,4.905184902E0
5.524451417E0,-1.167085606E0,-5.398341279E0,-4.502170111E0,7.125567562E0
5.534414417E0,-5.461319154E-1,-4.214705787E0,1.086647726E0,4.386662538E0
5.544376417E0,8.547797517E-1,-3.277305316E0,7.999827164E-1,3.480136622E0
5.554339417E0,9.101104186E-1,-2.544581367E0,3.561468887E-1,2.725809222E0
5.564301417E0,1.122910184E0,-2.163881143E0,7.994383407E-1,2.565620889E0
5.574263417E0,1.937467890E0,-2.206731878E0,-1.907693868E0,3.501819998E0
5.584226417E0,1.818485237E0,-1.356795960E0,1.308957696E-2,2.268910569E0
5.594188417E0,9.528302492E-1,-9.353652008E-1,1.622545041E0,2.101296255E0
5.604151417E0,2.875044069E0,-1.511395026E0,-6.694763714E-1,3.316382357E0
5.614113417E0,2.949974091E0,-2.598308508E0,-7.704285496E-1,4.005884970E0
5.624076417E0,1.015830563E0,-1.988507504E0,1.903524218E0,2.934191247E0
5.634038417E0,5.230358886E-1,-1.776130054E0,-1.609329164E0,2.453190752E0
5.644001417E0,-4.710395965E-1,-1.256161870E0,8.919465548E-1,1.611021292E0
5.653963417E0,-8.816679537E-1,-1.231075707E0,2.184426212E-1,1.529902924E0
5.663926417E0,-6.023819838E-1,-1.032199404E0,-6.386030728E-1,1.355032675E0
5.673888417E0,-7.784307566E-1,-5.623179950E-1,8.096575195E-1,1.256065790E0
5.683851417E0,-1.080589207E-2,-1.091828286E0,-5.942349851E-1,1.243109404E0
5.693813417E0,-3.714813580E-1,-8.320754519E-1,4.686297762E-1,1.024676449E0
5.703775417E0,-2.419200692E-1,-1.521657474E0,-3.107724953E-1,1.571797167E0
5.713738417E0,-4.972984188E-1,-1.699552725E0,3.576507926E-2,1.771175972E0
5.723700417E0,7.096474738E-1,-1.346437325E0,3.548610860E-1,1.562824174E0
5.733663417E0,2.760665514E0,-9.088268086E-1,-5.136217618E-1,2.951448384E0
5.743625417E0,2.808608882E0,-8.335466114E-1,3.566491646E-1,2.951318761E0
5.753588417E0,3.439937726E0,-9.571109958E-1,7.691193581E-2,3.571435070E0
5.763550417E0,3.466215990E0,-1.237929813E0,-1.189540011E-1,3.682563451E0
5.773513417E0,3.378469748E0,-1.026168148E0,3.558685613E-1,3.548763354E0
5.783475417E0,3.889986220E0,-1.300872751E0,-5.713899136E-3,4.101742966E0
5.793438417E0,3.886788963E0,-1.490061752E0,-1.320897710E-1,4.164716098E0
5.803400417E0,3.919900576E0,-1.028119948E0,3.059789479E-1,4.064021932E0
5.813363417E0,2.340001910E0,-8.575738437E-1,-2.586205941E-1,2.505579064E0
5.823325417E0,2.591598353E-1,9.241599256E-2,2.851383018E-1,3.962428386E-1
5.833287417E0,3.960261786E-1,4.869439135E-1,-1.313091677E-1,6.412434846E-1
5.843250417E0,3.542831253E-1,8.015404147E-1,-2.327191830E-3,8.763498075E-1
5.853212417E0,3.054321601E-1,1.023310029E0,2.087379974E-1,1.088128563E0
5.863175417E0,2.286287267E-1,8.344830430E-1,-2.943400651E-1,9.139305869E-1
5.873137417E0,1.731707733E-1,1.099117864E0,2.481616795E-1,1.140014217E0
5.883100417E0,1.514486687E-1,7.699237888E-1,-3.292175370E-1,8.509427281E-1
5.893062417E0,1.010295442E-1,9.034432771E-1,9.340517700E-2,9.138606299E-1
5.903025417E0,1.814567713E-1,6.985746016E-1,3.560369611E-3,7.217656891E-1
5.912987417E0,2.853997638E-2,6.044254395E-1,-1.031483924E-1,6.138275271E-1
5.922950417E0,1.004313192E-1,6.631686144E-1,1.775103575E-1,6.938220147E-1
5.932912417E0,-3.993015604E-2,2.044743174E-1,-2.233881962E-1,3.054610451E-1
5.942875417E0,6.712187412E-2,-1.042508119E-1,2.258615685E-1,2.576567986E-1
5.952837417E0,-4.186716042E-3,-1.743086049E-2,2.734274983E-2,3.269540422E-2
5.962799417E0,-2.975433343E-3,-2.055142812E-2,1.838189185E-2,2.773280277E-2
5.972762417E0,5.281293342E-2,-3.315614300E-2,1.315342855E-1,1.455671805E-1
5.982724417E0,-3.136149547E-3,-3.115049321E-3,-1.159011698E-1,1.159854306E-1
5.992687417E0,9.398421580E-2,-1.338458726E-2,1.033998227E-1,1.403698804E-1
6.002649417E0,5.444674598E-2,-2.058238182E-3,-4.779280186E-2,7.247645412E-2
6.012612417E0,8.327321308E-2,-2.274270874E-2,5.250916600E-2,1.010389595E-1
6.022574417E0,8.173527659E-2,-2.776236065E-2,-4.864883423E-4,8.632288676E-2
6.032537417E0,7.091193880E-2,-3.317492718E-2,-4.044694483E-2,8.811943148E-2
6.042499417E0,7.493228786E-2,-5.115654057E-2,2.122071505E-2,9.317809911E-2
6.052462417E0,4.712445140E-2,-3.506949814E-2,-6.323763728E-3,5.908107656E-2
6.062424417E0,7.923037509E-2,-2.347044954E-2,8.273985565E-2,1.169367267E-1
6.072387417E0,6.167877872E-2,-8.507570866E-3,-1.393976212E-3,6.227835641E-2
6.082349417E0,6.373286904E-2,-5.063688755E-3,1.237621665E-2,6.512058260E-2
6.092311417E0,5.731399669E-2,2.011040188E-2,-3.403781176E-2,6.962682752E-2
6.102274417E0,4.331758511E-2,3.077033283E-2,-1.710895300E-3,5.316158129E-2
6.112236417E0,3.715219870E-2,1.810029360E-2,6.065901518E-3,4.176962602E-2
6.122199417E0,2.520743347E-2,1.486915877E-2,4.228004694E-2,5.142089997E-2
6.132161417E0,3.395991588E-2,-2.213847209E-3,4.387633681E-2,5.552756017E-2
6.142124417E0,-9.333556772E-2,3.737096222E-2,-3.047679895E-1,3.209231130E-1
6.152086417E0,-1.705664417E-1,-5.660671201E-3,-2.244985825E-1,2.820010067E-1
6.162049417E0,4.039330394E-1,-1.620811086E-1,6.999941593E-1,8.242718054E-1
6.172011417E0,2.559078881E-1,-1.013078534E-1,4.773631775E-1,5.510242568E-1
6.181974417E0,-3.491303469E0,-1.150823403E-2,-2.954352486E-1,3.503799985E0
6.191936417E0,-6.503182032E0,-2.232477315E0,-2.592380601E-1,6.880591245E0
6.201899417E0,-5.116672715E0,-2.420539996E0,2.029656261E-1,5.663969332E0
6.211861417E0,-4.866103444E0,-2.019152177E0,2.117235857E-1,5.272643087E0
6.221823417E0,-4.192093727E0,-2.752170972E0,-2.840203142E-1,5.022824147E0
6.231786417E0,-2.299863990E0,-2.639919634E0,2.242652786E-1,3.508396352E0
6.241748417E0,-1.443212837E0,-2.280091923E0,4.406052411E-2,2.698818964E0
6.251711417E0,-1.743051478E0,-2.071676984E0,9.220415890E-2,2.708980544E0
6.261673417E0,-2.004050865E0,-1.281988876E0,1.187160194E-1,2.381975827E0
6.271636417E0,-1.362207266E0,-3.689614273E-1,-1.763473463E-1,1.422265642E0
6.281598417E0,-7.987137976E-1,-3.756178245E-1,1.749486923E-2,8.828015354E-1
6.291561417E0,-6.966715521E-1,-1.697051578E0,6.317454582E-1,1.940215873E0
6.301523417E0,1.041816028E0,-2.761867409E0,1.742043418E-1,2.956964554E0
6.311486417E0,1.945498017E0,-3.535266345E0,-1.210172496E0,4.212788641E0
6.321448417E0,1.966287354E0,-3.669143609E0,1.265754374E0,4.350980915E0
6.331411417E0,2.696887009E0,-4.335492890E0,1.607598388E-1,5.108379573E0
6.341373417E0,3.036611993E0,-4.577867872E0,-1.026241311E0,5.588475452E0
6.351335417E0,1.677707089E0,-3.803286338E0,1.126609937E0,4.306847802E0
6.361298417E0,1.315305726E0,-3.769714257E0,5.222580993E-1,4.026602569E0
6.371260417E0,1.041547787E0,-3.841789376E0,-1.157711277E0,4.145414672E0
6.381223417E0,-3.112999872E-1,-2.641475286E0,1.181156858E0,2.910228666E0
6.391185417E0,-1.998795096E0,-2.686974517E0,-6.819800574E-1,3.417617692E0
6.401148417E0,-3.404465592E0,-2.626192710E0,-2.626124883E-1,4.307695375E0
6.411110417E0,-7.985673248E-1,-3.410881157E0,9.870064938E-1,3.639505716E0
6.421073417E0,-4.187575218E-1,-3.843888819E0,4.937295341E-1,3.898026163E0
6.431035417E0,8.735175198E-1,-4.545554112E0,-1.023447511E0,4.740521053E0
6.440998417E0,7.840473727E-1,-5.014121323E0,-9.485060871E-2,5.075937309E0
6.450960417E0,5.165592933E-1,-5.448206919E0,9.571927106E-1,5.555718677E0
6.460923417E0,1.223869525E0,-6.056409148E0,5.830919462E-1,6.206282672E0
6.470885750E0,3.202030309E0,-6.765842468E0,-8.649049366E-1,7.535096744E0
6.480847750E0,2.370573346E0,-5.962178344E0,-1.657627165E-2,6.416187604E0
6.490810750E0,1.636419314E0,-4.656916673E0,9.563132894E-1,5.027850055E0
6.500772750E0,2.649480124E0,-4.103845209E0,3.664093369E-1,4.898524903E0
6.510735750E0,4.556869059E0,-3.496753366E0,-1.138830618E0,5.855704475E0
6.520697750E0,4.279308164E0,-2.170314542E0,3.521006155E-1,4.811103659E0
6.530660750E0,3.912069107E0,-1.523255811E0,7.142566878E-1,4.258492172E0
6.540622750E0,5.647605743E0,-7.812685566E-1,1.457845348E-1,5.703252083E0
6.550585750E0,6.398250239E0,-2.596857558E-1,-9.946160603E-1,6.480301221E0
6.560547750E0,4.789449371E0,5.071718444E-1,8.833336061E-1,4.896562755E0
6.570510750E0,4.830054483E0,6.669613378E-1,1.158087838E-1,4.877261056E0
6.580472750E0,4.674672913E0,9.363519184E-1,-9.977770650E-1,4.870819318E0
6.590435750E0,3.394055209E0,1.684016234E0,8.502658474E-1,3.883101010E0
6.600397750E0,3.455612942E0,1.548869977E0,-4.293113440E-1,3.811111024E0
6.610359750E0,1.752095512E0,1.818611976E0,-2.438587135E-1,2.537056419E0
6.620322750E0,3.013646542E-1,1.439043919E0,7.186192954E-1,1.636484569E0
6.630284750E0,-9.904245934E-2,4.010234649E-1,-5.564444304E-1,6.930076711E-1
6.640247750E0,1.821219834E-1,1.077507213E0,4.003623641E-1,1.163821392E0
6.650209750E0,7.629122189E-2,4.326934832E-1,-3.239930499E-1,5.459079568E-1
6.660172750E0,5.269803107E-2,6.831519856E-1,-8.445133567E-3,6.852335647E-1
6.670134750E0,1.540193879E-1,5.579462146E-1,2.086017573E-1,6.152565671E-1
6.680097750E0,-7.596940119E-2,4.293454041E-1,-2.216042107E-1,4.890984074E-1
6.690059750E0,1.289265461E-1,-7.266024258E-3,3.311968195E-1,3.554802142E-1
6.700022750E0,-4.853347963E-2,5.666399645E-2,-2.445083392E-1,2.556377027E-1
6.709984750E0,6.744896645E-2,1.724141071E-2,5.681973338E-2,8.986162373E-2
6.719947750E0,3.324709461E-2,1.047017053E-2,-3.419276297E-2,4.882764392E-2
6.729909750E0,3.218013307E-2,1.178065946E-2,7.672657907E-2,8.403161808E-2
6.739871750E0,7.100613836E-2,-8.626653068E-3,9.064704537E-2,1.154693798E-1
6.749834750E0,1.758759328E-2,2.068797888E-2,4.127549529E-3,2.746547966E-2
6.759796750E0,7.041130294E-2,-1.350049004E-3,1.804918528E-2,7.270039411E-2
6.769759750E0,2.700454779E-2,1.806976017E-2,-5.514742970E-2,6.400781856E-2
6.779721750E0,4.080193934E-2,-1.824532282E-2,2.957697093E-2,5.359559001E-2
6.789684750E0,-1.618294590E-3,5.936842505E-3,2.823035717E-2,2.889321793E-2
6.799646750E0,-2.913069134E-3,-8.952215072E-3,4.275133252E-2,4.377561603E-2
6.809609750E0,7.951345341E-3,1.846484922E-2,-8.140493631E-3,2.168967925E-2
6.819571750E0,7.723340476E-3,4.091536162E-2,-6.606768966E-2,7.809389491E-2
6.829534750E0,3.817532896E-2,5.288503233E-2,-9.460794926E-4,6.523095471E-2
6.839496750E0,2.788747736E-2,6.558522128E-2,2.570436001E-2,7.576177642E-2
6.849458750E0,3.397962739E-2,7.119416289E-2,6.193663180E-2,1.002964120E-1
6.859421750E0,4.539606014E-2,6.717769219E-2,-9.134637237E-2,1.221384638E-1
6.869383750E0,7.755914949E-2,5.442374540E-2,1.725577658E-1,1.968592093E-1
6.879346750E0,8.800653415E-3,-1.794912480E-4,1.404033422E-2,1.657150273E-2
6.889308750E0,5.224007531E-3,-6.526127822E-1,1.277973300E-1,6.650284891E-1
6.899271750E0,-1.918630244E-1,-1.317862421E0,-1.387976968E-1,1.338968850E0
6.909233750E0,-4.845919075E-1,-1.718402394E0,2.738701326E-1,1.806305886E0
6.919196750E0,-2.696594064E0,-1.293303092E0,-3.674179816E-1,3.013179119E0
6.929158750E0,-3.918988995E0,-5.800092576E-1,3.639295328E-1,3.978357724E0
6.939121750E0,-4.077397960E0,-2.758136374E-1,-2.777713948E-1,4.096145046E0
6.949083750E0,-3.762465171E0,3.339010471E-1,-3.144328523E-1,3.790316885E0
6.959046750E0,-3.758154604E0,-2.355684215E-1,-1.113707471E-1,3.767176921E0
6.969008750E0,-2.798125994E0,-2.945235215E-1,9.601420462E-2,2.815221467E0
6.978970750E0,-1.603478148E0,-2.805396860E-1,1.197433752E-1,1.632232570E0
6.988933750E0,-2.208781693E-1,-1.729884498E-1,2.836957937E-1,3.989930737E-1
6.998895750E0,4.455074005E-1,-2.446392620E-1,1.947654909E-1,5.442966184E-1
7.008858750E0,3.321987399E-1,-1.337184106E0,3.334099907E-1,1.417596402E0
7.018820750E0,2.247120972E-1,-2.990188609E0,3.274481696E-1,3.016445880E0
7.028783750E0,6.695115278E-1,-3.690877710E0,5.051199102E-1,3.784966325E0
7.038745750E0,6.031433643E-1,-3.984165861E0,8.436678493E-1,4.116932713E0
7.048708750E0,4.466655146E-1,-4.080893718E0,-1.168320465E-1,4.106927483E0
7.058670750E0,-1.495227036E0,-4.035783327E0,-2.815990407E0,5.143253146E0
7.068633750E0,2.505948704E-1,-3.724417631E0,2.139669870E0,4.302588945E0
7.078595750E0,4.492013424E-1,-3.515250448E0,3.994367498E-1,3.566274986E0
7.088558750E0,5.231228660E-1,-3.276601604E0,2.360123348E-1,3.326481238E0
7.098520750E0,1.546530653E0,-3.155910395E0,-2.550005829E-1,3.523712925E0
7.108482750E0,2.829818487E0,-2.797307968E0,-4.563582247E-1,4.005130131E0
7.118445750E0,2.093411231E0,-2.049048844E0,5.554661912E-1,2.981528876E0
7.128407750E0,2.476868271E0,-2.144533876E0,1.914776015E-1,3.281853996E0
7.138370750E0,3.515203963E0,-2.192306651E0,-4.683181196E-1,4.169195272E0
7.148332750E0,2.341557854E0,-2.016971896E0,3.915611351E-1,3.115186822E0
7.158295750E0,2.005495712E0,-2.277445765E0,-1.001616347E-1,3.036248445E0
7.168257750E0,1.043457706E0,-1.989619352E0,1.015643817E-1,2.248934076E0
7.178220750E0,6.240998583E-1,-1.417998474E0,1.697019857E-1,1.558531061E0
7.188182750E0,5.606957947E-1,-7.968553331E-1,-3.504248035E-1,1.035449535E0
7.198145750E0,2.935967013E-1,-1.392160286E-1,3.450067735E-1,4.739301630E-1
7.208107750E0,7.456758240E-1,-1.657694774E-1,-6.837149262E-3,7.639101392E-1
7.218070750E0,1.190542808E0,-1.232078870E-1,-3.293502688E-2,1.197354199E0
7.228032750E0,1.477523860E0,-8.210740618E-2,7.700315237E-2,1.481805611E0
7.237994750E0,2.075111639E0,-4.302174797E-1,-4.023235202E-2,2.119621201E0
7.247957750E0,3.193647448E0,2.121095933E-1,1.688202256E-1,3.205132567E0
7.257919750E0,4.554601217E0,-1.392259871E-1,-9.809932172E-2,4.557784505E0
7.267882750E0,5.381562694E0,2.815522045E-1,2.193015772E-1,5.393383155E0
7.277844750E0,3.857635330E0,-4.902177695E-1,-3.234059894E-1,3.902083448E0
7.287807750E0,3.078928000E0,-8.867132968E-1,5.321667910E-1,3.247962376E0
7.297769750E0,2.754479745E0,-7.453831708E-1,-7.851348817E-2,2.854631168E0
7.307732750E0,3.070375863E0,-4.452208869E-1,-6.526475000E-1,3.170390881E0
7.317694750E0,2.193180225E0,5.990857987E-2,9.512191951E-1,2.391327350E0
7.327657750E0,1.425934607E0,-5.150309773E-2,-9.280180281E-1,1.702104443E0
7.337619750E0,-4.798314334E-1,4.066424929E-1,3.723746663E-1,7.309303754E-1
7.347582750E0,-1.623107104E0,6.567767306E-1,4.083566773E-1,1.797939799E0
7.357544750E0,-1.478833198E0,6.080700455E-1,-6.018416280E-1,1.708481827E0
7.367506750E0,-1.287717977E0,8.944004850E-1,6.265531307E-1,1.688413055E0
7.377469750E0,-1.195073012E0,6.611696707E-1,-4.982465082E-1,1.453820628E0
7.387431750E0,-7.529205242E-1,9.426920544E-1,2.110394615E-1,1.224783768E0
7.397394750E0,-2.721846452E-2,8.683917774E-1,5.996319652E-2,8.708850147E-1
7.407356750E0,4.893292211E-2,7.425407662E-1,-7.367374778E-2,7.477894366E-1
7.417319750E0,8.912972032E-2,6.975258303E-1,1.411219651E-1,7.172180980E-1
7.427281750E0,2.601324831E-2,3.802703809E-1,-2.394031352E-1,4.501067793E-1
7.437244750E0,7.822454436E-2,2.714530398E-1,7.180029988E-2,2.914809003E-1
7.447206750E0,6.758717544E-2,-7.863578634E-2,2.659372151E-2,1.070459677E-1
7.457169750E0,6.985174268E-2,1.341680177E-2,3.990724683E-3,7.124045485E-2
7.467131750E0,8.093695806E-2,-2.347099772E-2,3.302858233E-2,9.051279559E-2
7.477094542E0,6.660705876E-2,-2.183467269E-2,2.823678911E-2,7.556830994E-2
7.487056542E0,4.361147622E-2,-4.277154196E-2,6.610745072E-2,9.000867014E-2
7.497018542E0,4.080877785E-2,-5.585119693E-2,1.386608720E-2,7.054772088E-2
7.506981542E0,5.336821791E-2,-5.864793845E-2,-1.328276896E-1,1.546962912E-1
7.516943542E0,6.358325341E-2,-2.897947686E-2,-1.850643754E-3,6.990039396E-2
7.526906542E0,6.443881069E-2,-1.327244863E-2,8.377247393E-2,1.065192265E-1
7.536868542E0,6.237769002E-2,-1.550508002E-2,1.279277229E-1,1.431673357E-1
7.546831542E0,5.871357801E-2,-1.981206598E-2,-8.590144515E-3,6.255871469E-2
7.556793542E0,5.864821710E-2,-2.331527906E-2,-6.846972585E-2,9.311991712E-2
7.566756542E0,4.605307704E-2,-6.847655978E-3,5.916797519E-3,4.693383418E-2
7.576718542E0,5.406133224E-2,-7.275270168E-3,9.736608088E-2,1.116051563E-1
7.586681542E0,3.945296385E-2,-8.316220734E-3,9.451088548E-2,1.027521453E-1
7.596643542E0,5.201149486E-2,1.703586280E-3,-8.452267170E-2,9.925814745E-2
7.606606542E0,4.894505509E-2,2.517319528E-2,-1.685056454E-1,1.772666373E-1
7.616568542E0,5.776165130E-2,1.396673240E-2,3.477105260E-2,6.885131861E-2
7.626530542E0,7.529926459E-2,1.774571478E-2,7.158921540E-2,1.054035360E-1
7.636493542E0,7.754670588E-2,-6.035514269E-3,6.350251615E-2,1.004115959E-1
7.646455542E0,5.979034734E-2,-3.342887906E-2,6.754235744E-2,9.619950956E-2
7.656418542E0,6.620738329E-3,-6.853183424E-2,-7.442043722E-2,1.013846535E-1
7.666380542E0,-8.618841553E-2,-9.791418426E-3,-2.818129903E-1,2.948607745E-1
7.676343542E0,-1.273738893E0,1.535303414E-1,4.701974148E-1,1.366406946E0
7.686305542E0,-4.133369848E0,2.929512783E-1,3.028278834E-1,4.154788981E0
7.696268542E0,-4.416508109E0,4.363137502E-3,-4.328705442E-1,4.437672794E0
7.706230542E0,-3.421226051E0,-3.841756266E-1,2.308697087E-1,3.450460756E0
7.716193542E0,-1.773408029E0,-9.423774742E-1,-2.956603664E-1,2.029893197E0
7.726155542E0,-4.753808618E-1,-1.631488065E0,-1.012650043E-1,1.702349809E0
7.736118542E0,-1.432554953E-1,-1.837065204E0,6.406653857E-1,1.950841571E0
7.746080542E0,-4.174360145E-1,-1.795502172E0,-2.780836362E-1,1.864245526E0
7.756042542E0,-1.130031947E0,-1.438829618E0,3.391999036E-1,1.860714767E0
7.766005542E0,-1.588215014E0,-1.465101304E0,-1.194083297E-1,2.164071883E0
7.775967542E0,-1.509051316E0,-1.580179625E0,1.603481948E-2,2.185053920E0
7.785930542E0,-1.242525286E0,-1.779054831E0,1.556289071E-1,2.175574760E0
7.795892542E0,-6.656753889E-1,-2.057504503E0,-1.076302832E-1,2.165186546E0
7.805855542E0,-8.236673020E-1,-2.048204214E0,2.493398935E-1,2.221652248E0
7.815817542E0,-3.108978084E-1,-2.121572737E0,7.022973776E-2,2.145381211E0
7.825780542E0,3.746337564E-2,-2.732402705E0,-6.125952423E-2,2.733346077E0
7.835742542E0,2.517363931E-1,-2.738315409E0,8.594237566E-3,2.749875698E0
7.845705542E0,9.994862793E-1,-2.312302626E0,1.922038257E-1,2.526392402E0
7.855667542E0,1.627071224E0,-2.030619151E0,5.317808747E-2,2.602614612E0
7.865630542E0,1.902649767E0,-1.903544391E0,1.632554305E-1,2.696332643E0
7.875592542E0,1.913120669E0,-2.024430751E0,1.319845212E-1,2.788506853E0
7.885554542E0,1.878976291E0,-2.548691375E0,-2.166720843E-1,3.173850409E0
7.895517542E0,1.810244756E0,-2.814699049E0,1.205760187E-1,3.348739374E0
7.905479542E0,9.211191908E-1,-2.940625270E0,1.358512849E-1,3.084508570E0
7.915442542E0,3.095471747E-1,-3.059822808E0,2.291517967E-1,3.083965891E0
7.925404542E0,6.786853706E-1,-3.250808074E0,7.392985582E-2,3.321721329E0
7.935367542E0,6.479081125E-1,-3.282725393E0,-2.635047734E-2,3.346156792E0
7.945329542E0,3.963104263E-1,-3.149131718E0,1.705808222E-2,3.174016936E0
7.955292542E0,8.259254967E-1,-3.162494652E0,6.794172227E-2,3.269272309E0
7.965254542E0,9.074551249E-1,-2.813437805E0,2.376811302E-1,2.965703863E0
7.975217542E0,7.564442756E-1,-2.747644934E0,6.073093593E-2,2.850517299E0
7.985179542E0,1.137021562E0,-2.724339979E0,8.584823549E-2,2.953339851E0
7.995142542E0,1.456028911E0,-2.572876044E0,5.314183474E-2,2.956777871E0
8.005104542E0,1.292290062E0,-2.486481678E0,-1.030875814E-1,2.804145465E0
8.015066542E0,1.076568223E0,-2.575619265E0,1.729805195E-1,2.796915443E0
8.025029542E0,8.976442279E-1,-2.969687979E0,1.456044406E-1,3.105803037E0
8.034991542E0,1.452897727E0,-3.413089943E0,-1.251801163E-1,3.711571746E0
8.044954542E0,1.938323337E0,-3.194416649E0,2.105974120E-1,3.742425197E0
8.054916542E0,2.583348115E0,-2.874052381E0,2.495328516E-1,3.872483856E0
8.064879542E0,2.939139493E0,-2.055180235E0,-1.142060620E-1,3.588223764E0
8.074841542E0,3.044487900E0,-1.187873993E0,2.694788736E-1,3.279111169E0
8.084804542E0,3.636855577E0,-7.542053036E-1,1.282142365E-1,3.716447634E0
8.094766542E0,4.339045950E0,-2.820360616E-1,-4.104482263E-1,4.367531551E0
8.104729542E0,3.770079708E0,2.240161506E-1,3.714513910E-1,3.794951959E0
8.114691542E0,3.736948214E0,5.277708177E-1,-1.383129627E-1,3.776566492E0
8.124653542E0,3.236778557E0,8.628999263E-1,-1.991561651E-3,3.349826216E0
8.134616542E0,2.881058223E0,1.114427556E0,1.030519134E-1,3.090803286E0
8.144578542E0,2.715786088E0,1.357082766E0,-3.147737449E-1,3.052253302E0
8.154541542E0,2.091108013E0,1.488414884E0,2.080679065E-1,2.575151227E0
8.164503542E0,1.803834161E0,1.618440442E0,1.691231114E-1,2.429355835E0
8.174466542E0,1.391558096E0,1.663467803E0,-1.308741349E-1,2.172714225E0
8.184428542E0,7.374273761E-1,1.526735196E0,1.509762776E-1,1.702208369E0
8.194391542E0,3.776215922E-1,1.224928822E0,-1.433281195E-1,1.289802944E0
8.204353542E0,-2.610710069E-2,8.895337012E-1,-1.312126887E-1,8.995379681E-1
8.214316542E0,6.775551586E-2,7.444441080E-1,1.202596843E-1,7.571329022E-1
8.224278542E0,-2.823766162E-2,5.107628388E-1,-1.270301753E-1,5.270794138E-1
8.234241542E0,5.007034717E-3,5.276841327E-1,-2.638848424E-3,5.277144852E-1
8.244203542E0,2.521960756E-2,5.707986139E-2,7.091503143E-3,6.280468612E-2
8.254166542E0,6.187815051E-2,8.109466843E-3,1.214571941E-1,1.365522572E-1
8.264128542E0,5.141462662E-2,6.831492081E-2,1.143656909E-2,8.626231708E-2
8.274090542E0,6.189769757E-2,3.514584085E-2,-1.026420236E-2,7.191598531E-2
8.284053542E0,4.100831408E-2,2.375910100E-2,5.605140924E-3,4.772414807E-2
8.294015542E0,3.052562229E-2,1.285826476E-2,7.057121515E-2,7.795796943E-2
8.303978542E0,2.630138814E-2,7.594674323E-3,4.198066950E-2,5.011804772E-2
8.313940542E0,2.651027991E-2,2.492730159E-2,-4.422833920E-3,3.665687883E-2
8.323903542E0,5.332276495E-2,3.219641391E-2,-1.160789251E-2,6.336141964E-2
8.333865542E0,6.055932929E-2,5.079792352E-2,2.491790950E-2,8.287800439E-2
8.343828542E0,8.359122852E-2,5.497232387E-2,5.410721004E-2,1.137411098E-1
8.353790542E0,6.707875090E-2,7.449723674E-2,6.204246640E-2,1.178925983E-1
8.363753542E0,7.134730055E-2,7.074670471E-2,5.965270936E-2,1.168502429E-1
8.373715542E0,4.505383814E-2,4.279542418E-2,-5.756583810E-3,6.240540777E-2
8.383677542E0,1.374425955E-2,1.271414917E-2,2.852505684E-2,3.412086059E-2
8.393640542E0,-6.288036327E-3,4.608062748E-3,-1.407424808E-3,7.921773017E-3
8.403602542E0,-2.709201392E-2,-4.019419894E-2,-1.395636821E-1,1.477415724E-1
8.413565542E0,-3.435836251E-2,-2.630909001E-2,2.704921961E-2,5.103259325E-2
8.423527542E0,-1.980632840E-2,-1.989604661E-2,4.113106906E-2,4.979867626E-2
8.433490542E0,8.654421860E-2,-1.851209838E-1,2.574453038E-1,3.286909869E-1
8.443452542E0,-1.032824581E-1,-1.074859301E0,-3.598791665E-1,1.138201563E0
8.453415542E0,-1.679334953E-2,-1.305988918E0,2.020499521E-1,1.321632799E0
8.463377542E0,-5.729854725E-2,-1.175254459E0,-3.104637623E-2,1.177059915E0
8.473340542E0,-1.119701159E0,-5.500654104E-1,-3.107093453E-2,1.247905463E0
8.483302542E0,-2.076395833E0,2.111197328E-1,3.962582034E-1,2.124385031E0
8.493265542E0,-2.918165530E0,7.918970405E-1,-4.328787303E-1,3.054533513E0
8.503227542E0,-3.267240796E0,1.474753157E0,1.708088636E-2,3.584696787E0
8.513189542E0,-2.858775361E0,1.684129963E0,5.525560319E-2,3.318424849E0
8.523152542E0,-2.239327182E0,6.615031081E-1,5.650339901E-2,2.335672328E0
8.533114542E0,-1.305724040E0,1.206844115E-1,-1.504710782E-1,1.319894518E0
8.543077542E0,-2.104428445E-1,-2.105671161E-1,-2.937173367E-2,2.991444466E-1
8.553039542E0,1.952999264E-2,-6.692727421E-1,1.036611933E-1,6.775345504E-1
8.563002542E0,-8.517750138E-1,-2.345236045E0,2.449240762E-1,2.507117983E0
8.572964542E0,-7.812058452E-1,-3.274088178E0,2.162317890E-1,3.372935244E0
8.582927542E0,-5.330440195E-1,-3.722082546E0,1.327551842E-1,3.762400609E0
8.592889542E0,-5.729457846E-1,-4.083607996E0,2.587568343E-1,4.131715895E0
8.602852542E0,1.901326871E-1,-3.826889501E0,3.222108185E-1,3.845133743E0
8.612814542E0,1.083246401E0,-3.304061006E0,2.058085424E-1,3.483188058E0
8.622777542E0,1.129719048E0,-3.328263801E0,-5.184679341E-1,3.552803689E0
8.632739542E0,2.053877914E0,-3.690202357E0,-1.057863638E0,4.353743607E0
8.642701542E0,2.354020902E0,-3.252683861E0,7.952453023E-1,4.093138379E0
8.652664542E0,2.408231900E0,-3.169717425E0,8.504547125E-1,4.070621901E0
8.662626542E0,1.606131760E0,-3.077138168E0,6.033279902E-1,3.523129745E0
8.672589542E0,-5.075740871E-2,-3.445275941E0,-2.704758239E-1,3.456249383E0
8.682551542E0,-9.487787866E-1,-3.736705555E0,-1.306505374E0,4.070639493E0
8.692514542E0,2.541482005E-2,-2.005838359E0,1.217563376E0,2.346591999E0
8.702476542E0,1.003435708E0,-1.975280372E0,1.567188281E-1,2.221075541E0
8.712439542E0,2.339695808E0,-1.918532851E0,-5.483869672E-1,3.075007812E0
8.722401542E0,2.377821408E0,-1.183681393E0,7.586645365E-1,2.762373647E0
8.732364542E0,3.461528862E0,-1.313041099E0,-6.386621296E-1,3.756880129E0
8.742326542E0,2.965512774E0,-1.036225870E0,2.223310196E-1,3.149200081E0
8.752289542E0,3.216980177E0,-5.851680733E-1,9.525991380E-2,3.271155390E0
8.762251542E0,3.177864643E0,-4.654375619E-1,-9.141887784E-2,3.213069129E0
8.772213542E0,2.856325378E0,6.080541484E-2,4.557805198E-1,2.893100040E0
8.782176542E0,2.429486967E0,2.485994898E-2,-3.919856429E-1,2.461031833E0
8.792138542E0,1.417227957E0,7.707178406E-2,2.238033485E-1,1.436858755E0
8.802101542E0,1.093749608E0,1.628139840E-1,-1.780675972E-1,1.120046726E0
8.812063542E0,1.259876168E0,-6.212721448E-2,1.208993697E-1,1.267187597E0
8.822026542E0,2.293561861E0,-2.517552869E-1,1.517194587E-1,2.312320378E0
8.831988542E0,3.498757207E0,-4.783202206E-1,-4.225718433E-1,3.556495352E0
8.841951542E0,3.733640152E0,-1.174066451E-1,5.383396965E-1,3.774077733E0
8.851913542E0,2.985283087E0,5.860190989E-2,-4.287804168E-1,3.016488346E0
8.861876542E0,1.527831549E0,1.045926693E0,3.748784441E-1,1.889117714E0
8.871838542E0,4.224785071E-1,7.668494689E-1,-9.443545640E-2,8.806044813E-1
8.881801542E0,1.297519446E-1,9.173405738E-1,1.266214550E-2,9.265579450E-1
8.891763542E0,2.029421459E-1,1.076237344E0,2.618991280E-1,1.126083251E0
8.901725542E0,1.786896313E-1,6.694741787E-1,-3.176792264E-1,7.622635707E-1
8.911688542E0,2.188485825E-1,9.017994786E-1,9.817650497E-2,9.331535928E-1
8.921650542E0,2.077674510E-1,9.013318475E-1,-2.073305726E-1,9.479200280E-1
8.931613542E0,1.395820277E-1,9.012161458E-1,5.852185786E-2,9.138372348E-1
8.941575542E0,1.047765770E-1,8.307268647E-1,-9.865305305E-2,8.431000413E-1
8.951538542E0,1.207283387E-1,6.989875612E-1,9.256142378E-3,7.093973630E-1
8.961500542E0,1.982025665E-2,4.175916966E-3,-1.012012696E-1,1.032084194E-1
8.971463542E0,6.131885976E-2,-1.283844636E-1,1.236235875E-1,1.884817350E-1
8.981425542E0,-1.164940318E-2,-5.740792673E-2,3.381737173E-2,6.763869659E-2
8.991388542E0,2.640766585E-2,-7.839692758E-2,1.692763084E-1,1.884088949E-1
9.001350542E0,2.486382733E-2,-3.748936834E-2,3.680763781E-2,5.812456321E-2
9.011313542E0,4.090265763E-2,-4.112968035E-4,-4.807405293E-2,6.312139995E-2
9.021275542E0,4.412894110E-2,1.010667471E-2,-2.651069105E-2,5.246260626E-2
9.031237542E0,5.272762346E-2,2.166811841E-2,8.335849106E-2,1.009868688E-1
9.041200542E0,4.119583611E-2,1.349277902E-2,8.126460314E-2,9.210367920E-2
9.051162542E0,1.737465413E-2,-3.949319087E-3,7.618337274E-3,1.937820400E-2
9.061125542E0,2.499991213E-2,-3.096985079E-2,1.166051745E-2,4.147402720E-2
9.071087542E0,1.402165054E-2,-4.311084492E-2,1.330709338E-2,4.724648525E-2
9.081050542E0,2.888323991E-2,-3.187063264E-2,4.787934065E-2,6.436155711E-2
9.091012542E0,5.971770025E-2,-1.712636674E-2,6.120105207E-2,8.720713810E-2
9.100975542E0,8.057406524E-2,-1.073543312E-2,2.362684429E-2,8.465020546E-2
9.110937542E0,8.641090209E-2,5.203693025E-3,-7.576705098E-2,1.150415944E-1
9.120900542E0,9.537886810E-2,2.063204661E-2,-9.163522482E-2,1.338649478E-1
9.130862542E0,8.589241851E-2,2.235920448E-2,-5.316522360E-2,1.034600531E-1
9.140825542E0,8.183019334E-2,4.957232885E-3,1.448940039E-2,8.325081035E-2
9.150787542E0,5.915406064E-2,-1.702000223E-2,5.729686618E-2,8.409407970E-2
9.160749542E0,2.628803547E-2,-4.659214921E-2,4.367285371E-2,6.905944778E-2
9.170712542E0,-4.192302874E-3,-6.730002690E-2,3.887813687E-2,7.783558666E-2
9.180674542E0,-1.293997960E-2,-6.760674991E-2,3.750579536E-2,7.838877720E-2
9.190637542E0,-3.221436212E-2,-4.272096355E-2,-1.650376618E-2,5.599303663E-2
9.200599542E0,-2.413313459E-1,-8.103763981E-2,2.296248364E-1,3.428344835E-1
9.210562542E0,-2.746214413E0,-1.157973817E0,9.704389930E-2,2.981948102E0
9.220524542E0,-3.983582309E0,-1.794103079E0,5.157887399E-2,4.369255572E0
9.230487542E0,-3.670193769E0,-1.551337064E0,-5.870662987E-2,3.985023897E0
9.240449542E0,-3.699099480E0,-2.015851277E0,-1.681109583E-1,4.216070994E0
9.250412542E0,-3.258024123E0,-1.866877964E0,7.548755407E-2,3.755749311E0
9.260374542E0,-2.316306068E0,-1.395571186E0,1.340766549E-1,2.707557808E0
9.270337542E0,-1.947154387E0,-1.135834577E0,8.835142851E-4,2.254225183E0
9.280299542E0,-1.733589806E0,-7.113751799E-1,1.053042608E-1,1.876826377E0
9.290261542E0,-1.030870259E0,-1.793883370E-1,-1.812286019E-2,1.046519042E0
9.300224542E0,-4.279731082E-2,2.670321610E-1,-3.298355877E-2,2.724439392E-1
9.310186542E0,7.476611730E-1,3.229326208E-1,1.425375760E-2,8.145464239E-1
9.320149542E0,6.343290505E-1,-9.171938818E-1,2.364321649E-2,1.115426807E0
9.330111542E0,5.410751702E-1,-1.735717754E0,1.505400753E-1,1.824319263E0
9.340074542E0,-2.633732110E-2,-2.398031432E0,-1.762116909E-2,2.398240795E0
9.350036542E0,5.481077170E-2,-3.357049059E0,1.206321520E-1,3.359662888E0
9.359999542E0,-5.772780597E-1,-4.164677594E0,-2.230303466E-2,4.204555488E0
9.369961542E0,-1.582021205E0,-4.743266600E0,1.717642987E-1,5.003086258E0
9.379924542E0,-1.016809313E0,-5.050235481E0,3.708725166E-1,5.164912973E0
9.389886542E0,-2.497046318E-1,-5.232037695E0,3.570719182E-2,5.238114723E0
9.399849542E0,3.829675918E-1,-4.845150239E0,5.343770385E-2,4.860555586E0
9.409811542E0,1.504656110E0,-4.479879063E0,9.638784170E-2,4.726795642E0
9.419773542E0,1.266151253E0,-4.100457040E0,2.363859719E-1,4.297995493E0
9.429736542E0,8.786597805E-1,-3.864193860E0,1.238867122E-1,3.964767977E0
9.439698542E0,1.781917043E0,-3.693518313E0,8.178734422E-2,4.101706358E0
9.449661542E0,2.088379556E0,-3.444561996E0,-1.963857543E-1,4.032977049E0
9.459623542E0,1.884541379E0,-3.121195768E0,2.550771815E-1,3.654917728E0
9.469586542E0,2.643137649E0,-3.136412270E0,2.488966745E-1,4.109161485E0
9.479548500E0,3.212936828E0,-3.279844177E0,-2.209212559E-1,4.596645199E0
9.489511500E0,2.969148573E0,-3.137720292E0,1.208982003E-1,4.321544661E0
9.499473500E0,2.825664333E0,-3.239731986E0,3.996951967E-1,4.317406457E0
9.509436500E0,2.771483740E0,-3.656874689E0,2.968105137E-2,4.588543950E0
9.519398500E0,2.527996910E0,-3.890261332E0,-2.834613204E-1,4.648144998E0
9.529361500E0,2.201762622E0,-3.169951899E0,3.005118012E-1,3.871260909E0
9.539323500E0,2.415391669E0,-2.139297694E0,4.501063818E-1,3.257807130E0
9.549285500E0,2.576773506E0,-1.464885103E0,-4.271817881E-1,2.994684348E0
9.559248500E0,3.489348745E0,-5.108118092E-1,1.520159125E-1,3.529814755E0
9.569210500E0,3.784597467E0,5.575007664E-2,3.809484386E-1,3.804130357E0
9.579173500E0,4.469829161E0,4.275942726E-1,-3.841819489E-1,4.506640141E0
9.589135500E0,4.709864965E0,1.646903664E0,2.297862196E-1,4.994789422E0
9.599098500E0,4.206995356E0,2.044888989E0,-8.836253822E-2,4.678481467E0
9.609060500E0,3.114067428E0,2.278872632E0,-1.927400154E-1,3.863654375E0
9.619023500E0,1.955342243E0,2.139639464E0,1.663532853E-3,2.898520846E0
9.628985500E0,7.928201696E-1,1.673324162E0,-4.552174330E-2,1.852201339E0
9.638948500E0,2.968507133E-1,1.362398470E0,2.510618985E-2,1.394589637E0
9.648910500E0,1.272817518E-1,1.036704319E0,-5.620051324E-2,1.045999515E0
9.658873500E0,2.033623414E-1,8.719756821E-1,-2.015125930E-2,8.956025376E-1
9.668835500E0,7.372312477E-2,6.928938854E-1,-1.161175168E-1,7.064136983E-1
9.678797500E0,2.159052585E-1,6.367905090E-1,1.040576345E-1,6.804007821E-1
9.688760500E0,2.461453951E-2,5.950523162E-1,-6.659569323E-2,5.992729937E-1
9.698722500E0,2.053872505E-1,5.633491150E-1,2.633059680E-1,6.548863877E-1
9.708685500E0,2.743588958E-2,4.867420384E-1,-1.493940210E-1,5.098912761E-1
9.718647500E0,1.385849130E-1,4.810403087E-1,8.546465814E-2,5.078481707E-1
9.728610500E0,3.187407244E-2,4.531965622E-1,-1.176646900E-1,4.693059340E-1
9.738572500E0,7.188273649E-2,2.806349956E-1,9.863551140E-2,3.060262941E-1
9.748535500E0,-4.129335671E-3,-4.362607598E-2,3.134692311E-3,4.393304240E-2
9.758497500E0,1.816833600E-2,1.952929828E-2,4.782437682E-3,2.709896003E-2
9.768460500E0,2.285907746E-2,4.810047504E-3,-6.592735648E-3,2.427216807E-2
9.778422500E0,2.100972649E-2,2.106643992E-2,-3.748649955E-3,2.998759534E-2
9.788385500E0,2.502142806E-2,1.863076396E-2,3.906524777E-2,4.999270759E-2
9.798347500E0,1.475649937E-2,2.126752932E-2,3.441086411E-3,2.611327541E-2
9.808309500E0,2.973526146E-2,2.595743481E-2,3.607498169E-2,5.347315682E-2
9.818272500E0,1.342826322E-2,1.600825120E-2,-8.963781595E-4,2.091377186E-2
9.828234500E0,2.840764201E-2,1.219581177E-2,4.194792509E-3,3.119820882E-2
9.838197500E0,1.107739474E-2,2.290067492E-2,-2.838823199E-3,2.559704091E-2
9.848159500E0,1.865865244E-2,3.881454840E-3,2.515413702E-2,3.155854261E-2
9.858122500E0,2.479847556E-2,8.825421855E-3,2.410982430E-2,3.569504291E-2
9.868084500E0,6.038769980E-2,6.920289360E-3,4.354421496E-3,6.093870428E-2
9.878047500E0,5.359987729E-2,1.824614508E-2,2.112365127E-2,6.043241927E-2
9.888009500E0,5.056630069E-2,1.607479982E-2,2.591719866E-2,5.905125859E-2
9.897972500E0,4.078511946E-2,1.624639733E-2,-2.302808940E-2,4.957483532E-2
9.907934500E0,3.248214176E-2,3.936219497E-2,1.066058511E-1,1.181917062E-1
9.917897500E0,2.527316897E-2,1.434493762E-2,3.894596457E-2,4.859319357E-2
9.927859500E0,4.207055217E-2,2.132377222E-2,1.783225358E-2,5.042443742E-2
9.937821500E0,-4.440019709E-2,-2.237303863E-1,-3.957518345E-1,4.567780399E-1
9.947784500E0,-1.409252647E0,-1.384550061E0,-1.149433959E-1,1.978935037E0
9.957746500E0,-3.856813212E0,-2.127900448E0,8.361512536E-1,4.483538489E0
9.967709500E0,-4.263204932E0,-1.874518666E0,-6.335399687E-2,4.657547665E0
9.977671500E0,-3.438200811E0,-7.691158497E-1,-6.408057189E-1,3.580976958E0
9.987634500E0,-2.896651870E0,3.101447967E-1,-6.668959951E-1,2.988566900E0
9.997596500E0,-1.503088764E0,1.180994963E0,-1.580443919E-1,1.918072721E0
1.000755950E1,-1.304723727E0,7.881866167E-1,2.206791812E-1,1.540208248E0
1.001752150E1,-1.341990371E0,-3.669446861E-1,1.656064789E0,2.162900170E0
1.002748450E1,-1.481316218E0,-1.033812943E0,-2.532165974E-1,1.824057451E0
1.003744650E1,-1.229303270E0,-2.370557120E0,-4.460074836E-1,2.707332684E0
1.004740950E1,-1.493897818E-1,-2.901039620E0,3.975194478E-1,2.931956667E0
1.005737150E1,7.094223012E-2,-3.284279583E0,7.145379388E-1,3.361858064E0
1.006733350E1,7.986036506E-1,-3.098668493E0,1.481690294E0,3.526318242E0
1.007729650E1,1.014132166E0,-3.252953125E0,-3.526332968E-1,3.425568321E0
1.008725850E1,4.671708594E-1,-3.582438757E0,-2.586176705E0,4.443019920E0
1.009722150E1,1.776484103E0,-2.820422012E0,1.397553538E0,3.614392339E0
1.010718350E1,1.964276935E0,-2.748892145E0,6.279459375E-1,3.436438273E0
1.011714650E1,2.325176879E0,-2.799877235E0,5.003234392E-1,3.673701620E0
1.012710850E1,3.005141109E0,-3.163420267E0,-8.439993864E-1,4.444146243E0
1.013707150E1,2.292224457E0,-3.138129012E0,-2.305802715E-1,3.892982651E0
1.014703350E1,1.029376807E0,-2.133425774E0,1.382317448E0,2.742612563E0
1.015699650E1,8.099969503E-1,-2.179734845E0,-8.926008582E-1,2.490798134E0
1.016695850E1,3.005075437E-1,-2.199160757E0,-8.338585603E-1,2.371061559E0
1.017692150E1,5.100183055E-1,-1.156798527E0,1.218438705E0,1.755817297E0
1.018688350E1,1.575104972E0,-2.080722919E0,-5.680792201E-1,2.670782196E0
1.019684550E1,1.976189614E0,-1.398555020E0,8.297122997E-1,2.559238956E0
1.020680850E1,3.287619805E0,-1.397986086E0,-7.634767950E-2,3.573323110E0
1.021677050E1,4.309007927E0,-1.013700349E0,-3.486571902E-1,4.440349034E0
1.022673350E1,5.150856122E0,-3.007145534E-1,3.522532278E-1,5.171637108E0
1.023669550E1,5.521485395E0,4.479855236E-2,7.603953123E-2,5.522190678E0
1.024665850E1,4.209237471E0,6.667970310E-1,2.961047548E-1,4.271999109E0
1.025662050E1,2.407214923E0,-4.376105530E-2,-2.919497234E-1,2.425249133E0
1.026658350E1,1.243188507E0,1.022433165E-1,-1.051639277E-1,1.251811012E0
1.027654550E1,1.087277618E0,-2.973689959E-1,-3.315657789E-1,1.174962469E0
1.028650850E1,1.141552789E0,-2.031518417E-1,-2.708664179E-2,1.159804780E0
1.029647050E1,7.388504422E-1,4.715839358E-1,1.915407515E-1,8.972063553E-1
1.030643350E1,1.251158846E0,1.110761497E0,2.970233524E-1,1.699238781E0
1.031639550E1,1.922130351E0,1.428634705E0,-4.254165137E-1,2.432398285E0
1.032635750E1,1.927653484E0,1.820989015E0,-2.875350755E-1,2.667306763E0
1.033632050E1,8.521416342E-1,1.795663847E0,2.295815670E-1,2.000815262E0
1.034628250E1,-1.537575605E-1,1.818730236E0,-1.330095381E-1,1.830058085E0
1.035624550E1,-1.140208075E0,1.812429861E0,5.594867367E-1,2.213142983E0
1.036620750E1,-1.561810158E0,1.295911827E0,-3.755549669E-1,2.063899214E0
1.037617050E1,-1.681520643E0,4.098912060E-1,-5.953050256E-2,1.731781266E0
1.038613250E1,-3.977567717E-1,-1.605871998E-2,2.980033457E-2,3.991946791E-1
1.039609550E1,1.760507828E-1,-3.373779478E-2,1.426077425E-2,1.798207069E-1
1.040605750E1,5.388455446E-2,-2.623959951E-2,2.269538283E-1,2.347341091E-1
1.041602050E1,6.974288397E-2,4.575574156E-3,-1.485976303E-1,1.642140721E-1
1.042598250E1,1.300454291E-1,-8.557528015E-3,-1.867542207E-2,1.316579519E-1
1.043594550E1,7.653542080E-2,6.695822060E-2,-2.450018442E-1,2.652677470E-1
1.044590750E1,1.772427560E-1,9.073453434E-2,9.460794926E-3,1.993420601E-1
1.045587050E1,1.245475572E-1,1.283357855E-1,-1.768198013E-3,1.788443300E-1
1.046583250E1,1.269780255E-1,6.738176001E-2,1.753077114E-1,2.267079932E-1
1.047579450E1,4.647129001E-2,5.034196861E-3,-5.071290135E-3,4.701746395E-2
1.048575750E1,2.233472383E-2,-6.847025575E-2,-4.324659169E-2,8.400763956E-2
1.049571950E1,-2.462763636E-2,-1.155018049E-1,-4.669411004E-2,1.269942020E-1
1.050568250E1,-2.225278972E-2,-1.226251571E-1,1.522392762E-1,1.967458081E-1
1.051564450E1,-3.810707185E-2,-1.196295189E-1,2.386102527E-1,2.696260808E-1
1.052560750E1,-2.176516848E-2,-8.365766751E-2,2.229005384E-1,2.390752558E-1
1.053556950E1,-1.042243349E-2,-7.309253454E-2,6.230032861E-2,9.660474456E-2
1.054553250E1,1.028009491E-2,-4.357721519E-2,-3.424246430E-2,5.636666033E-2
1.055549450E1,3.589750042E-2,-2.310015634E-4,-6.777156830E-2,7.669204240E-2
1.056545750E1,7.104069632E-2,2.691829680E-2,5.796110988E-2,9.555556234E-2
1.057541950E1,1.069345559E-1,3.753676733E-2,5.031646013E-2,1.239990093E-1
1.058538150E1,1.062539126E-1,2.934445275E-2,-1.914963126E-2,1.118825243E-1
1.059534450E1,1.155359381E-1,1.737395978E-2,-1.317289978E-1,1.760765070E-1
1.060530650E1,9.427082073E-2,1.491790993E-2,-1.256075478E-1,1.577554682E-1
1.061526950E1,1.082642310E-1,3.671278501E-2,-2.725971937E-3,1.143521020E-1
1.062523150E1,9.743887872E-2,5.810407430E-2,1.018988425E-1,1.524919428E-1
1.063519450E1,8.267838679E-2,3.438714635E-2,4.142226040E-2,9.866101121E-2
1.064515650E1,6.079064605E-2,8.796222322E-4,-3.028039098E-2,6.792038325E-2
1.065511950E1,4.339456279E-4,1.178314453E-2,-6.277278364E-2,6.387059706E-2
1.066508150E1,-4.697168102E-1,9.807105409E-2,-9.651402462E-1,1.077843916E0
1.067504450E1,-2.626633408E-1,3.405753149E-1,1.530105239E-1,4.565038840E-1
1.068500650E1,1.096631847E0,-5.218808077E-1,1.656433164E0,2.053955163E0
1.069496950E1,6.363427585E-1,-2.412519882E-1,1.168706381E0,1.352408679E0
1.070493150E1,-4.478880212E-1,4.623714648E-1,-2.580856324E0,2.659926769E0
1.071489350E1,-1.765116823E0,5.331274885E-1,-3.090686166E-1,1.869595071E0
1.072485650E1,-2.994262657E0,2.826127250E-1,1.177294772E0,3.229783551E0
1.073481850E1,-3.763301031E0,-1.235487797E-1,3.142287844E-1,3.778417483E0
1.074478150E1,-3.864707538E0,-4.732176478E-1,2.911562562E-1,3.904442503E0
1.075474350E1,-3.190842538E0,-1.039605707E-2,-1.216523157E0,3.414895719E0
1.076470650E1,-3.080691521E0,3.300900878E-1,1.153567940E-1,3.100472045E0
1.077466850E1,-2.490990759E0,1.195015928E-1,6.753633481E-1,2.583685593E0
1.078463150E1,-1.173764954E0,2.110972027E-1,6.207953775E-1,1.344497340E0
1.079459350E1,5.002108072E-1,-2.233563289E-1,-9.169317073E-1,1.068111725E0
1.080455650E1,1.218884482E0,-4.357908630E-1,-9.040204704E-1,1.578874937E0
1.081451850E1,1.510955900E0,-3.578612193E-1,1.080260228E0,1.891564047E0
1.082448150E1,2.057667640E0,-5.091037644E-1,5.627494830E-1,2.193141523E0
1.083444350E1,2.613570326E0,-8.051687582E-1,1.257011032E-1,2.737671884E0
1.084440550E1,2.647657254E0,-5.226810357E-1,-1.647672281E0,3.161978549E0
1.085436850E1,2.377144301E0,-2.471682924E-1,1.119286299E0,2.639073514E0
1.086433050E1,2.152498076E0,-7.154653072E-1,8.863232875E-1,2.435304405E0
1.087429350E1,2.432233404E0,-4.490198960E-1,-1.230634242E0,2.762578295E0
1.088425550E1,2.101369584E0,-2.199898676E-1,-1.254900187E-1,2.116576815E0
1.089421850E1,1.719466880E0,-4.400757757E-1,9.726720446E-1,2.023937732E0
1.090418050E1,1.351098872E0,-2.252308549E-1,6.624895334E-3,1.369759464E0
1.091414350E1,-2.615095024E-1,1.072190961E-1,-8.251333451E-1,8.721973353E-1
1.092410550E1,2.800913142E-1,-1.194265657E-1,8.265431088E-1,8.808446853E-1
1.093406850E1,2.684917631E-2,5.503143556E-4,-1.803953737E-1,1.823833106E-1
1.094403050E1,-2.070941624E-1,6.719468566E-2,-4.816281366E-1,5.285534787E-1
1.095399350E1,-1.182898761E-1,1.869332917E-2,4.088414115E-1,4.260202285E-1
1.096395550E1,-5.110171927E-1,2.138630637E-1,-8.195252806E-1,9.891904098E-1
1.097391750E1,-5.498974857E-1,1.627241926E-1,5.332993966E-1,7.831185441E-1
1.098388050E1,-4.881566991E-1,1.559942119E-1,8.712006336E-1,1.010753037E0
1.099384250E1,-1.984439012E-1,2.042685685E-1,1.782149470E-1,3.359556478E-1
1.100380550E1,-5.923230370E-2,-1.650429974E-1,-1.557654396E0,1.567493181E0
1.101376750E1,-2.718481288E-1,-4.992462359E-1,7.268831652E-1,9.227715563E-1
1.102373050E1,1.339695230E-1,-9.146385755E-1,7.271930677E-1,1.176146808E0
1.103369250E1,1.789495583E-1,-1.600455576E0,-1.110634174E0,1.956269221E0
1.104365550E1,3.575786160E-1,-1.329220345E0,8.921155393E-1,1.640292452E0
1.105361750E1,2.763804336E-1,-1.420098063E0,-3.604866922E-2,1.447191818E0
1.106358050E1,-5.108328592E-2,-1.011250146E0,-4.273928726E-1,1.099045508E0
1.107354250E1,-3.191902566E-1,-2.973262930E-1,7.145069486E-1,8.371412808E-1
1.108350550E1,-8.445078018E-1,-4.099900239E-1,-4.642823714E-1,1.047302901E0
1.109346750E1,-1.194322814E0,4.873652054E-1,3.156876647E-1,1.328002458E0
1.110342950E1,-1.805612884E0,3.822748064E-1,-1.333896071E-1,1.850449865E0
1.111339250E1,-1.868683876E0,1.764871679E-1,-4.539602816E-2,1.877548388E0
1.112335450E1,-1.250247704E0,4.385815563E-2,1.498477650E-1,1.259959210E0
1.113331750E1,-5.914454978E-1,-3.825722470E-1,-1.991204971E-1,7.319960884E-1
1.114327950E1,-4.035396679E-1,-1.041741695E0,2.663389188E-1,1.148480057E0
1.115324250E1,-6.499048635E-1,-1.924691870E0,-2.037918377E-1,2.041652820E0
1.116320450E1,-7.438993668E-1,-2.313681546E0,1.691962016E-1,2.436213438E0
1.117316750E1,1.409179155E-1,-1.153952029E0,7.919176519E-2,1.165218640E0
1.118312950E1,-5.332012000E-2,-1.278711950E0,-1.087529486E-1,1.284435475E0
1.119309250E1,3.439923181E-1,-1.154009186E0,4.294779897E-2,1.204953289E0
1.120305450E1,-1.712844250E-1,-1.075180313E0,1.527643561E-1,1.099403478E0
1.121301750E1,-4.193354825E-1,-1.202681628E0,6.387381434E-2,1.275290245E0
1.122297950E1,-1.240790125E0,-1.458425246E0,3.220470965E-2,1.915098294E0
1.123294150E1,-1.621551599E0,-1.189863216E0,1.836323923E-1,2.019634847E0
1.124290450E1,-1.043684359E0,-1.130245589E0,5.541990995E-3,1.538428694E0
1.125286650E1,-9.954046304E-1,-1.024945349E0,2.449983358E-3,1.428757974E0
1.126282950E1,-1.292182327E0,-9.363965765E-1,1.725805700E-1,1.605103662E0
1.127279150E1,-9.007064878E-1,-1.723253683E0,4.679994464E-2,1.945010454E0
1.128275450E1,7.273850025E-1,-2.945985121E0,-2.973040187E-1,3.048984577E0
1.129271650E1,8.983289368E-1,-2.617983804E0,1.652844143E-1,2.772751885E0
1.130267950E1,1.186233118E0,-2.648306880E0,3.692662865E-1,2.925241175E0
1.131264150E1,2.470452999E0,-3.214910555E0,4.525861859E-2,4.054730107E0
1.132260450E1,1.702179148E0,-3.537272817E0,-3.289760470E-2,3.925658554E0
1.133256650E1,1.311757489E0,-3.500933833E0,-8.233171999E-2,3.739521885E0
1.134252950E1,9.550828160E-1,-3.071932392E0,1.029583579E-1,3.218625829E0
1.135249150E1,4.989513535E-1,-2.551693336E0,8.122191846E-2,2.601285900E0
1.136245350E1,-1.425852125E-1,-2.093763087E0,1.542752767E-1,2.104275474E0
1.137241650E1,-4.013947265E-1,-1.896531679E0,2.580598462E-1,1.955644400E0
1.138237850E1,-1.464552287E-1,-1.852313134E0,1.907952315E-1,1.867863994E0
1.139234150E1,7.822918924E-1,-1.697550638E0,-4.523616529E-1,1.923093820E0
1.140230350E1,-3.730923024E-1,-1.497293881E0,3.253536969E-1,1.577004077E0
1.141226650E1,2.473777415E-2,-2.359415397E0,1.001370764E-1,2.361668987E0
1.142222850E1,1.301257790E0,-3.187125171E0,2.157587492E-1,3.449288409E0
1.143219150E1,1.776087661E0,-3.654047560E0,-8.453319669E-3,4.062834283E0
1.144215350E1,2.046467591E0,-3.876584110E0,-1.514154035E-1,4.386212556E0
1.145211650E1,2.432798976E0,-3.659784556E0,6.878430605E-2,4.395141083E0
1.146207850E1,2.660821968E0,-3.050643849E0,4.529066133E-1,4.073269674E0
1.147204150E1,3.250608099E0,-2.525610369E0,-7.907774448E-2,4.117209496E0
1.148200429E1,3.333743227E0,-1.543691537E0,-2.671961206E-1,3.683506648E0
1.149196629E1,2.971246262E0,-6.200318042E-1,2.558484292E-1,3.046014150E0
1.150192929E1,3.320408067E0,-2.413626468E-1,2.421355391E-1,3.337962743E0
1.151189129E1,4.228212855E0,2.873042202E-2,5.674371958E-2,4.228691196E0
1.152185429E1,4.758501228E0,4.323925343E-1,-6.865245134E-1,4.827174447E0
1.153181629E1,3.970906130E0,1.272716946E0,8.935329044E-1,4.264540417E0
1.154177929E1,3.873459650E0,1.263510505E0,-4.083613551E-1,4.094741439E0
1.155174129E1,2.652273923E0,1.746065425E0,-1.464505327E-1,3.178796815E0
1.156170429E1,1.633047956E0,1.741371280E0,4.474786431E-1,2.428879721E0
1.157166629E1,3.137452197E-1,1.040070122E0,-4.753809714E-1,1.185819965E0
1.158162929E1,2.268634340E-1,1.397193350E0,3.880025196E-1,1.467706452E0
1.159159129E1,1.027160274E-2,7.941059723E-1,-3.555177283E-1,8.701164613E-1
1.160155429E1,1.297362759E-1,1.172201554E0,3.529472923E-1,1.231040120E0
1.161151629E1,1.078766977E-2,5.411776792E-1,-2.524020803E-1,5.972407089E-1
1.162147829E1,-2.877168143E-3,7.013337564E-1,-5.451651514E-2,7.034553052E-1
1.163144129E1,1.297209543E-1,4.863875509E-1,1.605867612E-1,5.283828948E-1
1.164140329E1,-8.755019551E-2,2.531287430E-1,-2.877303725E-1,3.931004510E-1
1.165136629E1,9.718043178E-2,-5.243243957E-2,2.521974277E-1,2.753120767E-1
1.166132829E1,-5.889192265E-3,4.934538379E-2,-4.942534447E-2,7.008932988E-2
1.167129129E1,2.195555474E-2,3.554014418E-2,-5.226767600E-2,6.691082264E-2
1.168125329E1,6.741775237E-2,-1.657740455E-3,9.338178813E-2,1.151870643E-1
1.169121629E1,-7.709329999E-3,3.968125194E-2,-7.920989156E-2,8.892829946E-2
1.170117829E1,7.368880436E-2,-4.306693599E-3,1.608902317E-1,1.770148416E-1
1.171114129E1,2.012988956E-2,3.465683090E-2,-7.659267783E-3,4.080407779E-2
1.172110329E1,6.902103606E-2,1.190403571E-2,5.401365459E-2,8.844820160E-2
1.173106629E1,5.001752580E-2,2.675263787E-2,-6.209743023E-4,5.672602691E-2
1.174102829E1,2.516093440E-2,2.353880715E-2,-4.960777760E-3,3.481030563E-2
1.175099029E1,3.026695152E-2,2.489852233E-2,6.853696883E-2,7.895150958E-2
1.176095329E1,4.216852044E-3,2.894806635E-2,7.614828944E-3,3.022843043E-2
1.177091529E1,2.507064517E-2,1.009030251E-2,4.025223255E-2,4.848292152E-2
1.178087829E1,-1.685194960E-3,3.158152437E-2,-2.605753183E-2,4.097837880E-2
1.179084029E1,1.728707837E-2,2.147894271E-2,1.241714716E-2,3.023861111E-2
1.180080329E1,1.903454618E-2,3.190787209E-2,-8.233464360E-3,3.805543568E-2
1.181076529E1,2.725029987E-2,1.850917842E-2,1.033378422E-2,3.452471036E-2
1.182072829E1,3.574008241E-2,2.259344028E-2,7.141146004E-2,8.299044318E-2
1.183069029E1,2.025658684E-2,2.284909151E-2,2.546111584E-2,3.975775035E-2
1.184065329E1,3.344907937E-2,1.899036773E-2,3.144807994E-2,4.968356578E-2
1.185061529E1,2.391785747E-2,2.349959426E-3,-2.752927601E-2,3.654377174E-2
1.186057829E1,3.168606619E-2,3.610964471E-2,2.421916723E-3,4.810175582E-2
1.187054029E1,-2.634453510E-1,6.653928587E-2,-1.432193613E-1,3.071525924E-1
1.188050229E1,-1.741507667E0,-1.615632645E-1,4.872531581E-1,1.815590064E0
1.189046529E1,-2.881183353E0,-1.440879360E0,-6.975786746E-2,3.222144783E0
1.190042729E1,-2.519588614E0,-9.402391474E-1,-3.913237381E-1,2.717629611E0
1.191039029E1,-1.378139905E0,-5.666436555E-1,5.413445807E-1,1.585373327E0
1.192035229E1,-3.228264207E-1,-3.142263359E-1,-5.002322227E-1,6.731919226E-1
1.193031529E1,1.502537353E-1,3.111904981E-1,4.141670555E-1,5.393978689E-1
1.194027729E1,2.936317480E-1,4.202241131E-1,-1.701077825E-1,5.401338411E-1
1.195024029E1,-4.205289723E-1,5.007485318E-1,-1.883855939E-2,6.541778046E-1
1.196020229E1,-1.911218715E0,4.560943691E-1,3.252320749E-1,1.991621187E0
1.197016529E1,-1.724409385E0,-3.689683709E-1,-4.590543759E-1,1.822211926E0
1.198012729E1,-2.395005790E0,-7.044846017E-1,3.655006796E-1,2.523081853E0
1.199009029E1,-1.933045056E0,-1.517756651E0,-1.629800266E-1,2.463089712E0
1.200005229E1,-1.929637445E0,-2.413889519E0,-1.847135425E-2,3.090421407E0
1.201001529E1,-1.638267034E0,-2.440381938E0,3.772091442E-1,2.963388199E0
1.201997729E1,-3.359465128E-1,-3.066421098E0,8.717730761E-2,3.086000372E0
1.202993929E1,3.034009653E-1,-3.394429724E0,-2.779877418E-1,3.419280989E0
1.203990229E1,1.206020936E-1,-2.982367081E0,2.590281451E-1,2.996023006E0
1.204986429E1,-1.630814758E-1,-2.391793038E0,1.561305982E-1,2.402425080E0
1.205982729E1,1.227945619E-1,-1.703300498E0,1.403653353E-1,1.713479944E0
1.206978929E1,6.002625874E-1,-1.372382883E0,-8.765911818E-2,1.500477948E0
1.207975229E1,7.658788311E-1,-1.130671340E0,-8.993836284E-2,1.368604023E0
1.208971429E1,2.346304368E-1,-9.410458439E-1,2.312708277E-1,9.970481021E-1
1.209967729E1,4.255346640E-1,-8.916768520E-1,5.150227547E-2,9.893532448E-1
1.210963929E1,7.710333710E-1,-1.182829965E0,9.342037976E-2,1.415028817E0
1.211960229E1,5.518044089E-1,-1.332229468E0,-1.766139793E-1,1.452761494E0
1.212956429E1,-1.583516631E-1,-1.267045731E0,2.527295244E-1,1.301672903E0
1.213952629E1,-7.877499758E-1,-1.601767691E0,-6.830132604E-3,1.785008799E0
1.214948929E1,-7.410974541E-1,-1.538287102E0,-1.662474507E-1,1.715573041E0
1.215945129E1,-3.718313869E-1,-1.408910585E0,1.935042465E-1,1.469942689E0
1.216941429E1,5.432537514E-2,-1.731619440E0,1.955151039E-1,1.743468752E0
1.217937629E1,6.644971749E-1,-2.032868575E0,-5.247642159E-2,2.139360866E0
1.218933929E1,1.376243214E0,-2.094081907E0,2.050384641E-2,2.505921951E0
1.219930129E1,1.280414367E0,-2.176342583E0,1.800240755E-1,2.531469268E0
1.220926429E1,1.232380806E0,-2.218608012E0,-1.686804771E-2,2.537965424E0
1.221922629E1,1.617084619E0,-2.009307512E0,-3.207139313E-2,2.579400689E0
1.222918929E1,1.495086118E0,-1.827105203E0,1.522176415E-1,2.365748536E0
1.223915129E1,2.088327515E0,-1.343006764E0,1.549436134E-1,2.487727176E0
1.224911429E1,1.960387806E0,-1.704416585E0,-2.936764061E-1,2.614268937E0
1.225907629E1,2.070695821E0,-1.161205135E0,5.586172557E-1,2.438899708E0
1.226903829E1,1.232742164E0,-1.474541195E0,-6.305122805E-1,2.022738420E0
1.227900129E1,9.210243928E-1,-1.619008060E0,3.986485451E-1,1.904834295E0
1.228896329E1,1.432447967E0,-1.854188628E0,1.198626584E-1,2.346122270E0
1.229892629E1,9.416151434E-1,-1.725567864E0,-1.317611575E-1,1.970173732E0
1.230888829E1,1.435858209E0,-1.670711187E0,2.887548047E-1,2.221788470E0
1.231885129E1,1.521296701E0,-1.749664971E0,-4.055166847E-1,2.353744877E0
1.232881329E1,1.618704151E0,-1.648025014E0,6.695617408E-1,2.405099270E0
1.233877629E1,1.276077341E0,-1.733960519E0,-5.853869784E-1,2.231069335E0
1.234873829E1,1.068902085E0,-1.138043509E0,2.449866414E-1,1.580415499E0
1.235870129E1,6.943373436E-1,-8.992021454E-1,4.970133305E-1,1.240036732E0
1.236866329E1,9.164051655E-1,-8.689588112E-1,-5.828832006E-1,1.390913609E0
1.237862629E1,1.432495329E0,-1.079296607E-1,3.163431376E-1,1.470974052E0
1.238858829E1,1.673269637E0,1.746473780E-1,3.627045411E-1,1.721013529E0
1.239855129E1,2.178075551E0,7.206698773E-2,-5.188778239E-1,2.240187705E0
1.240851329E1,1.525233047E0,1.014197728E0,8.001938009E-1,1.998810395E0
1.241847529E1,-4.826485854E-1,2.715655402E0,-1.214735663E0,3.013854119E0
1.242843829E1,1.647574925E0,2.477640688E0,1.829096764E-1,2.981050564E0
1.243840029E1,2.524354094E0,1.272893970E0,3.281574368E-2,2.827313128E0
1.244836329E1,1.033701042E0,1.246559134E0,4.171222383E-1,1.672255507E0
1.245832529E1,-3.053547028E-1,1.669505784E-1,-5.113600588E-1,6.185491895E-1
1.246828829E1,1.202709037E-1,-9.947911844E-2,1.831394720E-1,2.406267888E-1
1.247824992E1,1.072219466E-1,2.298308412E-2,2.618359780E-1,2.838711810E-1
1.248821292E1,-1.125387101E-1,3.036552278E-2,-3.450108665E-1,3.641696367E-1
1.249817492E1,1.598592214E-1,-3.909018980E-2,3.832674444E-1,4.171054393E-1
1.250813792E1,-1.828894853E-2,2.506940721E-2,-1.757181859E-1,1.784372205E-1
1.251809992E1,4.723379434E-2,-7.137677874E-3,2.729363322E-2,5.501745348E-2
1.252806292E1,7.167236920E-2,-2.612760706E-2,1.301099038E-1,1.508249562E-1
1.253802492E1,-3.233927327E-2,-3.627886679E-3,-1.290024412E-1,1.330436770E-1
1.254798692E1,9.631425815E-2,-4.625390606E-2,1.739780545E-1,2.041671462E-1
1.255794992E1,8.415203132E-3,-1.196939662E-2,-7.706864119E-2,7.844525195E-2
1.256791192E1,5.669516942E-2,-3.785818147E-2,5.811723053E-2,8.958346178E-2
1.257787492E1,4.685848989E-2,-2.573648315E-2,6.462342739E-3,5.385022296E-2
1.258783692E1,4.470270370E-2,-1.618739527E-2,-6.178928196E-2,7.796331733E-2
1.259779992E1,8.623349391E-2,-3.321408525E-2,4.673387110E-2,1.035540711E-1
1.260776192E1,4.965148096E-2,-1.831313225E-2,-1.913910627E-2,5.627562317E-2
1.261772492E1,7.664078945E-2,-8.012329973E-3,5.062460840E-2,9.220010312E-2
1.262768692E1,4.762732109E-2,-5.986214932E-3,-1.166519523E-2,4.939912208E-2
1.263764992E1,3.489297161E-2,-1.522143524E-2,-1.061211169E-2,3.951997562E-2
1.264761192E1,3.604788807E-2,-1.000394644E-2,2.096226811E-2,4.288293207E-2
1.265757492E1,2.652673891E-2,4.335198775E-3,2.529856324E-2,3.691177492E-2
1.266753692E1,5.508174446E-2,-1.273856129E-2,7.723528683E-2,9.571603339E-2
1.267749892E1,1.179314418E-2,4.522273131E-3,1.091090441E-2,1.669062728E-2
1.268746192E1,2.567893376E-2,-7.029869836E-3,-5.330614150E-2,5.958499333E-2
1.269742392E1,3.033693081E-2,-6.796438023E-3,-4.193623066E-2,5.220314533E-2
1.270738692E1,3.748608842E-2,-3.404724039E-3,1.498138511E-1,1.544700261E-1
1.271734892E1,2.519650649E-2,-1.937429225E-2,8.824559391E-2,9.379505308E-2
1.272731192E1,-1.354268958E-1,1.309639262E-2,-1.168706381E-1,1.793619404E-1
1.273727392E1,-1.432190397E0,9.172304269E-2,2.336740333E-1,1.454024073E0
1.274723692E1,-3.181995701E0,-4.308629027E-1,-1.342269284E-1,3.213838258E0
1.275719892E1,-3.989934724E0,-1.173513085E0,-2.082228577E-1,4.164140826E0
1.276716192E1,-3.765788436E0,-1.640231406E0,6.363858086E-1,4.156501956E0
1.277712392E1,-2.802167589E0,-1.622706716E0,-4.687291789E-1,3.271853806E0
1.278708692E1,-2.159210826E0,-1.112523190E0,3.754158032E-1,2.457811275E0
1.279704892E1,-1.904460942E0,-8.194795261E-1,-3.431321561E-1,2.101489436E0
1.280701092E1,-2.461659079E0,-8.636362369E-1,2.684585345E-1,2.622537503E0
1.281697392E1,-1.803730666E0,7.440178094E-2,1.118893951E-1,1.808728608E0
1.282693592E1,-1.984288446E0,1.311340802E-1,-1.655475390E-1,1.995495620E0
1.283689892E1,-2.012854726E0,7.051051375E-2,3.240351498E-1,2.039988887E0
1.284686092E1,-5.381267117E-1,-4.502349474E-1,-2.777374810E-1,7.546058402E-1
1.285682392E1,-9.333783352E-2,-1.009473251E0,1.003101540E-1,1.018729759E0
1.286678592E1,-1.076687926E-1,-1.583525401E0,2.431751740E-1,1.605702161E0
1.287674892E1,5.540235003E-1,-1.972184563E0,-8.967816174E-2,2.050486811E0
1.288671092E1,1.046544671E0,-2.352130351E0,1.998946685E-1,2.582194960E0
1.289667392E1,6.496223699E-1,-2.605958713E0,6.247925341E-2,2.686435128E0
1.290663592E1,1.231376254E0,-3.178484156E0,-1.676414269E-1,3.412792501E0
1.291659892E1,1.051357514E0,-3.210032223E0,1.142107397E-1,3.379749042E0
1.292656092E1,1.340747546E0,-3.372081958E0,2.371069336E-1,3.636586368E0
1.293652292E1,1.322856966E0,-3.363550285E0,-9.076457441E-2,3.615474973E0
1.294648592E1,1.191245059E0,-3.127599639E0,4.902948797E-2,3.347140299E0
1.295644792E1,9.346801995E-1,-2.863039151E0,2.719235945E-1,3.023997800E0
1.296641092E1,3.769768270E-1,-2.667450372E0,2.583299875E-2,2.694080614E0
1.297637292E1,5.671122368E-1,-2.477123210E0,2.267550230E-2,2.541312626E0
1.298633592E1,8.005168596E-1,-2.523412400E0,1.227956218E-1,2.650191719E0
1.299629792E1,1.357120188E0,-2.540828040E0,7.741655052E-2,2.881592555E0
1.300626092E1,1.462348727E0,-2.573254651E0,9.190127313E-2,2.961173609E0
1.301622292E1,1.131993468E0,-2.430019502E0,-2.134759963E-2,2.680831907E0
1.302618592E1,1.028586410E0,-2.535081104E0,-7.605941176E-2,2.736861567E0
1.303614792E1,3.662689307E-1,-2.315771194E0,3.648492998E-1,2.372775625E0
1.304611092E1,1.078531572E0,-2.490247285E0,1.448396248E-1,2.717635077E0
1.305607292E1,1.698470844E0,-2.462143228E0,-2.390593189E-1,3.000683562E0
1.306603492E1,9.263661166E-1,-2.007413599E0,4.046396023E-1,2.247575749E0
1.307599792E1,1.160110974E0,-1.867071799E0,-3.845023763E-1,2.231514430E0
1.308595992E1,6.096707574E-1,-1.303843136E0,-4.439206123E-2,1.440026393E0
1.309592292E1,1.176540262E0,-7.415196231E-1,3.991788876E-1,1.446873223E0
1.310588492E1,2.429171364E0,-3.000129424E-1,2.959503883E-1,2.465454910E0
1.311584792E1,3.578499780E0,-5.423599496E-1,-3.499277902E-1,3.636243178E0
1.312580992E1,4.123739483E0,-2.920425114E-1,-1.998648477E-1,4.138896243E0
1.313577292E1,4.483377452E0,1.781035393E-1,6.426698112E-1,4.532705454E0
1.314573492E1,4.229987777E0,1.611430507E-2,-7.129773170E-1,4.289684478E0
1.315569792E1,3.238831514E0,9.542350428E-1,3.967674959E-1,3.399708597E0
1.316565992E1,2.508950774E0,9.230146388E-1,3.461142361E-2,2.673572135E0
1.317562292E1,1.492909200E0,1.049084336E0,-2.594134766E-1,1.843000590E0
1.318558492E1,4.983139705E-1,1.201190515E0,3.686447275E-1,1.351693161E0
1.319554792E1,1.135057482E-1,9.491558589E-1,-4.468904132E-1,1.055221039E0
1.320550992E1,3.296913077E-1,1.415534457E0,3.070694536E-1,1.485505236E0
1.321547192E1,2.494633428E-1,8.653431854E-1,-1.080495286E-1,9.070421647E-1
1.322543492E1,3.221777452E-2,9.032018602E-1,-8.306963861E-2,9.075858913E-1
1.323539692E1,2.246213923E-1,1.096665542E0,2.019218981E-1,1.137498366E0
1.324535992E1,1.515511046E-2,8.304743381E-1,-1.785920924E-1,8.495954561E-1
1.325532192E1,1.535781424E-1,9.019429547E-1,1.366500145E-1,9.250732759E-1
1.326528492E1,4.852616604E-2,6.408168286E-1,-1.327902675E-1,6.562272867E-1
1.327524692E1,5.782443578E-2,5.577720772E-1,3.950028062E-2,5.621508940E-1
1.328520992E1,3.227312664E-2,1.502617478E-2,4.578662217E-2,5.799789135E-2
1.329517192E1,4.674343221E-2,-1.507874491E-2,2.572774887E-2,5.544577590E-2
1.330513492E1,2.287105969E-2,3.992413066E-2,-4.986505508E-2,6.784943109E-2
1.331509692E1,3.089383242E-2,-3.601172213E-3,2.812159896E-2,4.193115370E-2
1.332505892E1,2.798064908E-2,1.514761414E-2,2.946704328E-2,4.336673353E-2
1.333502192E1,4.507310197E-2,1.347947661E-2,2.632358015E-2,5.390929125E-2
1.334498392E1,4.246800751E-2,1.677873150E-2,2.976759017E-2,5.450841143E-2
1.335494692E1,4.875867509E-2,1.956112906E-2,-4.509957433E-3,5.272936452E-2
1.336490892E1,5.487454746E-2,2.591946445E-2,2.183701158E-2,6.449720669E-2
1.337487192E1,4.450489879E-2,2.667667888E-2,1.360413194E-2,5.364143565E-2
1.338483392E1,4.634921568E-2,3.097588073E-2,3.845304430E-2,6.772290304E-2
1.339479692E1,2.811639128E-2,2.501120914E-2,1.570035875E-2,4.077491025E-2
1.340475892E1,2.403257710E-2,3.134352442E-2,4.344481230E-4,3.949898771E-2
1.341472192E1,1.160669566E-2,1.951910220E-2,1.555768669E-2,2.752730190E-2
1.342468392E1,2.639237629E-2,-5.109918304E-4,4.933880568E-3,2.685445618E-2
1.343464692E1,2.817175711E-2,3.127036113E-3,2.185338378E-2,3.579101334E-2
1.344460892E1,2.878464124E-2,3.043651164E-2,1.946538091E-2,4.619348293E-2
1.345457092E1,3.611085527E-2,1.721202845E-2,1.408243418E-2,4.240946526E-2
1.346453392E1,6.308284138E-2,2.902680276E-2,5.375462294E-2,8.781548635E-2
1.347449592E1,6.340968703E-2,2.976375293E-2,-1.390000105E-2,7.141344010E-2
1.348445887E1,5.392338363E-2,1.158053851E-2,-6.563499570E-3,5.554205344E-2
1.349442087E1,7.385316594E-2,-7.556837356E-2,1.829541153E-1,2.112748861E-1
1.350438387E1,-1.326147414E-1,-4.966013941E-1,-1.868594706E-2,5.143430556E-1
1.351434588E1,-1.158422810E0,-9.590334872E-1,-1.643412584E-1,1.512843907E0
1.352430887E1,-3.553993222E0,-1.020118764E0,5.185135424E-1,3.733680009E0
1.353427087E1,-4.067817298E0,-5.956288151E-1,-6.091114712E-1,4.156071226E0
1.354423387E1,-3.374578134E0,7.593140160E-1,8.225219786E-2,3.459927858E0
1.355419587E1,-2.324986552E0,1.558220552E0,1.383486307E-1,2.802276593E0
1.356415887E1,-8.672425803E-1,1.338261163E0,-7.172896385E-2,1.596307514E0
1.357412087E1,-7.168415956E-1,-1.849965660E-1,5.651409942E-1,9.313806665E-1
1.358408387E1,-5.766423212E-1,-1.711015168E0,-3.721267444E-1,1.843520432E0
1.359404588E1,-4.602392045E-1,-2.154605120E0,-2.281893450E-1,2.214997455E0
1.360400787E1,-5.182081716E-1,-1.995256653E0,3.363780373E-1,2.088717071E0
1.361397087E1,-2.427857312E-1,-2.320477326E0,4.067790985E-2,2.333498366E0
1.362393287E1,1.614222370E-1,-2.062240017E0,-1.017292732E-1,2.071048012E0
1.363389587E1,3.057682654E-1,-1.987174924E0,2.302107275E-1,2.023698443E0
1.364385787E1,7.964929520E-1,-1.839423678E0,2.476518023E-1,2.019705896E0
1.365382087E1,1.521846339E0,-1.431600267E0,1.183301032E-2,2.089410353E0
1.366378287E1,1.775037209E0,-1.651287176E0,-1.557329875E-1,2.429353658E0
1.367374588E1,1.541750261E0,-1.883008239E0,1.740949988E-2,2.433724920E0
1.368370787E1,1.390386021E0,-2.053982725E0,3.862197036E-1,2.510215923E0
1.369367087E1,1.136086300E0,-2.084732063E0,1.205052674E-1,2.377250801E0
1.370363287E1,9.120531560E-1,-2.022980495E0,-2.091420400E-1,2.228908126E0
1.371359587E1,5.595560262E-1,-1.782351784E0,2.929396570E-2,1.868351938E0
1.372355787E1,2.516991650E-3,-1.708083520E0,1.977335376E-1,1.719492425E0
1.373351987E1,-4.156761396E-2,-1.671704045E0,2.368625200E-1,1.688912707E0
1.374348287E1,4.642361053E-1,-1.346140140E0,-3.171430367E-1,1.458831088E0
1.375344488E1,8.902039383E-1,-9.692514235E-1,2.463899732E-2,1.316251668E0
1.376340787E1,1.107945551E0,-8.248065589E-1,1.782453525E-1,1.392702628E0
1.377336987E1,1.422253931E0,-7.243376530E-1,-1.535893983E-1,1.603452832E0
1.378333287E1,2.012198083E0,-3.910511482E-1,1.847860479E-1,2.058156459E0
1.379329487E1,2.147892224E0,-1.684057128E-1,3.033769369E-2,2.154697628E0
1.380325787E1,2.195508148E0,1.760792515E-1,-1.396677625E-1,2.206981426E0
1.381321987E1,2.220943244E0,5.036484584E-1,2.142642009E-1,2.287391486E0
1.382318287E1,1.926338007E0,4.341293035E-1,-1.186113542E-1,1.978210055E0
1.383314488E1,1.687365958E0,-1.403945349E-1,9.358117819E-2,1.695780628E0
1.384310687E1,1.962754028E0,-1.552829712E-1,1.105445355E-1,1.971987898E0
1.385306987E1,2.402917658E0,-3.243025868E-1,3.429567397E-2,2.424945697E0
1.386303187E1,1.969074429E0,-3.967335089E-1,1.885276812E-1,2.017472248E0
1.387299487E1,8.859875842E-1,-1.519408672E-1,-2.643450183E-1,9.369836259E-1
1.388295687E1,1.482419003E0,8.916345327E-1,-3.796538651E-2,1.730323557E0
1.389291987E1,1.143447360E0,7.629465256E-1,2.440721369E-1,1.396112629E0
1.390288187E1,8.132944145E-1,6.674258260E-1,-2.482973349E-1,1.080997967E0
1.391284488E1,5.248204589E-1,9.827188037E-1,2.850868464E-2,1.114444035E0
1.392280687E1,9.179087039E-3,8.611086318E-1,2.281829131E-1,8.908758461E-1
1.393276987E1,-3.662023455E-1,8.533596092E-1,-3.195860034E-1,9.820702593E-1
1.394273187E1,-1.109181434E0,8.993991235E-1,5.014338255E-2,1.428886488E0
1.395269487E1,-1.683563952E0,8.512749307E-1,1.001113486E-1,1.889200590E0
1.396265687E1,-1.014744515E0,1.761928519E-1,-1.669520402E-1,1.043371140E0
1.397261987E1,3.454279557E-1,-9.736805432E-2,2.710593760E-1,4.497490366E-1
1.398258187E1,-6.874523477E-2,4.479751082E-2,-1.045330131E-1,1.328904628E-1
1.399254388E1,5.829465242E-2,-1.680944765E-2,7.197103858E-2,9.413104921E-2
1.400250687E1,3.510109595E-2,-1.485958396E-2,5.563859582E-2,6.744292043E-2
1.401246887E1,2.026442577E-2,-1.469231704E-2,-1.844387233E-2,3.109159948E-2
1.402243187E1,6.723161448E-2,-4.429571008E-2,7.166055143E-2,1.077842036E-1
1.403239387E1,2.851870256E-2,-9.913259782E-3,-4.239289820E-2,5.204562357E-2
1.404235687E1,8.197493020E-2,-2.752222281E-2,9.816071749E-2,1.308162390E-1
1.405231887E1,5.520480551E-2,-2.309178751E-2,-2.293277979E-2,6.408364526E-2
1.406228187E1,7.328630579E-2,-1.892221112E-2,6.433515966E-2,9.933753298E-2
1.407224388E1,4.756397930E-2,-1.008820117E-2,-4.343896508E-2,6.520005841E-2
1.408220687E1,6.947340041E-2,-3.156162556E-3,4.981886208E-2,8.554784478E-2
1.409216887E1,4.424682645E-2,1.343118226E-2,-2.412736595E-2,5.215657288E-2
1.410213187E1,7.103138189E-2,7.515736911E-3,1.883154273E-2,7.386860305E-2
1.411209387E1,5.440018752E-2,1.387893280E-2,-8.263869882E-3,5.674765831E-2
1.412205587E1,5.507180419E-2,4.271208309E-4,3.903250337E-2,6.750275823E-2
1.413201887E1,4.451204336E-2,4.622187428E-3,9.239770174E-3,4.569529487E-2
1.414198087E1,5.615462631E-2,-1.080488708E-2,2.076170862E-2,6.083696397E-2
1.415194388E1,4.510829947E-2,-6.006607097E-3,1.521854818E-2,4.798377037E-2
1.416190587E1,5.242879420E-2,-1.002472233E-2,1.701247394E-2,5.602408222E-2
1.417186887E1,4.957765987E-2,-2.224156581E-2,2.165282428E-2,5.849338772E-2
1.418183087E1,5.878214118E-2,-9.587843958E-3,2.913667560E-2,6.630394210E-2
1.419179387E1,6.333822310E-2,-2.313809015E-2,1.716099322E-2,6.958161689E-2
1.420175587E1,4.930892549E-2,-1.166291116E-2,3.856589556E-2,6.367669848E-2
1.421171887E1,4.497989370E-2,-1.744421773E-2,3.751865923E-2,6.111580287E-2
1.422168087E1,5.298919043E-2,-1.963071093E-2,3.616853714E-2,6.709234079E-2
1.423164388E1,5.072024692E-2,-1.374930734E-2,3.691464186E-2,6.422053942E-2
1.424160587E1,5.737873177E-2,-4.313198626E-3,3.451786816E-2,6.709996843E-2
1.425156787E1,5.413638673E-2,-1.100986853E-2,1.864910960E-2,5.830741687E-2
1.426153087E1,4.832065011E-2,-1.515967403E-2,6.371710896E-3,5.104213596E-2
1.427149287E1,4.967051639E-2,-5.116277151E-3,7.541154027E-3,5.049955935E-2
1.428145587E1,-4.540669019E-2,2.659059690E-2,-2.715388477E-1,2.765902622E-1
1.429141787E1,-9.650635745E-2,5.957178025E-2,-1.410786957E-1,1.810123543E-1
1.430138087E1,7.586334001E-1,-2.084136049E-1,1.346918405E0,1.559855780E0
1.431134288E1,-1.784495848E-1,-3.966345813E-1,-6.211625826E-1,7.582916322E-1
1.432130587E1,-4.872516963E-1,-4.057450550E-1,-1.077202134E0,1.249963081E0
1.433126787E1,7.051228984E-1,-7.055722569E-1,1.753295799E0,2.017195249E0
1.434123087E1,-4.077983413E-1,-1.017265396E0,-1.266188822E0,1.674623094E0
1.435119287E1,-5.897959544E0,-2.343598240E0,1.327972841E-1,6.347914194E0
1.436115587E1,-4.506015532E0,-1.748305055E0,9.372940511E-1,4.923338977E0
1.437111787E1,-4.384049923E0,-1.096993132E0,-9.846091354E-1,4.625228946E0
1.438108087E1,-3.400760796E0,-8.955534828E-1,8.288246924E-1,3.613051398E0
1.439104288E1,-1.255351446E0,-3.360711316E-1,2.213802624E-1,1.318279287E0
1.440100487E1,4.227773546E-2,-4.771964588E-1,-8.616848749E-1,9.859029825E-1
1.441096787E1,-2.544648866E-1,-5.493531465E-1,5.830849296E-1,8.405529687E-1
1.442092987E1,2.984324034E-1,-9.324319451E-1,2.468559963E-1,1.009667824E0
1.443089287E1,7.846601609E-1,-1.588499774E0,-2.102968651E-1,1.784165875E0
1.444085487E1,1.043104535E0,-1.614758742E0,-7.796501935E-2,1.923952029E0
1.445081787E1,1.424771304E0,-9.820582876E-1,1.798369646E-1,1.739756616E0
1.446077987E1,1.740680432E0,-5.548894364E-1,4.378722525E-1,1.878723705E0
1.447074288E1,1.792038281E0,-8.215058056E-1,-3.609071070E-1,2.004127473E0
1.448070462E1,1.298824471E0,-1.166317648E0,-2.269947588E-1,1.760331924E0
1.449066762E1,5.501149290E-1,-1.042285120E0,5.671348947E-1,1.307909284E0
1.450062962E1,6.541987664E-1,-1.525614139E0,-2.633007056E-1,1.680714666E0
1.451059263E1,1.110004722E-1,-2.358000370E0,5.308920979E-2,2.361208444E0
1.452055462E1,6.621176505E-1,-1.477979797E0,1.055188537E-1,1.622947409E0
1.453051662E1,5.670338475E-1,-1.033461307E0,3.422960043E-2,1.179296961E0
1.454047962E1,3.770292693E-1,-8.779449584E-1,1.938398767E-1,9.749422124E-1
1.455044162E1,1.706519207E-1,-6.839114658E-1,-1.892334402E-1,7.298398906E-1
1.456040462E1,-2.431916924E-1,-8.624162885E-1,1.105059439E-1,9.028375366E-1
1.457036662E1,-5.603734304E-1,-8.715798256E-1,2.319029117E-1,1.061813889E0
1.458032962E1,-5.198398371E-1,-7.852963380E-1,5.342776358E-2,9.432806160E-1
1.459029163E1,6.533540812E-2,-6.889065959E-1,-1.401519120E-2,6.921397540E-1
1.460025462E1,7.100276159E-1,-1.057490732E0,3.962891936E-2,1.274361140E0
1.461021662E1,1.105565735E0,-1.704507071E0,5.241093278E-2,2.032330400E0
1.462017962E1,1.352998632E0,-1.962681522E0,1.816963792E-2,2.383915727E0
1.463014162E1,2.169307359E0,-2.090023208E0,9.060845375E-3,3.012336888E0
1.464010462E1,2.004630617E0,-1.997316189E0,3.813378632E-2,2.830065379E0
1.465006662E1,1.344597937E0,-1.778977648E0,1.299654776E-1,2.233740385E0
1.466002862E1,1.374705251E0,-1.439190099E0,1.198182195E-1,1.993850313E0
1.466999163E1,1.315470471E0,-1.062389967E0,-1.747726911E-1,1.699906026E0
1.467995362E1,1.766070650E0,-3.322193514E-1,6.804229438E-2,1.798333949E0
1.468991662E1,1.620271059E0,8.486771224E-2,6.929067492E-2,1.623971068E0
1.469987862E1,1.218240484E0,2.794527617E-1,5.255185068E-2,1.250985779E0
1.470984162E1,1.249021397E0,3.357226375E-1,-1.209753835E-1,1.298999300E0
1.471980363E1,1.216959578E0,5.644326040E-1,3.324609876E-2,1.341894214E0
1.472976662E1,8.991836536E-1,7.221358109E-1,1.311261499E-1,1.160691793E0
1.473972862E1,8.307594629E-1,4.373172786E-1,-2.621318471E-1,9.747413979E-1
1.474969163E1,1.194601287E0,5.057411769E-1,3.157490605E-1,1.335119412E0
1.475965362E1,1.233665000E0,1.459296006E-1,5.526437402E-2,1.243494645E0
1.476961662E1,5.945210967E-1,8.303461013E-2,-2.309065461E-1,6.431702060E-1
1.477957862E1,3.718722078E-1,3.199452417E-1,2.573716289E-1,5.539801910E-1
1.478954062E1,2.549164927E-1,2.394029159E-1,-2.499228609E-1,4.298343992E-1
1.479950362E1,1.273749692E-1,6.890012477E-1,1.830038166E-1,7.241805707E-1
1.480946562E1,3.766121435E-1,7.809763420E-1,-1.253759980E-1,8.760592984E-1
1.481942862E1,1.582175974E-1,8.381556791E-1,-6.848609805E-2,8.557032758E-1
1.482939063E1,2.050202281E-1,7.628694154E-1,1.607037055E-1,8.061195444E-1
1.483935362E1,1.226444986E-1,6.031321815E-1,-9.017751396E-2,6.220466908E-1
1.484931562E1,8.038731979E-2,5.206177726E-1,4.516155481E-2,5.287197295E-1
1.485927862E1,7.925238437E-2,5.272350300E-1,4.275425613E-2,5.348697446E-1
1.486924062E1,-5.430488247E-2,1.247922632E-1,-1.207075810E-1,1.819133017E-1
1.487920362E1,5.878979281E-2,-5.212197069E-2,1.804772347E-1,1.968374248E-1
1.488916562E1,-1.439678826E-2,4.959445691E-2,-6.128349781E-2,8.014078095E-2
1.489912862E1,1.575458025E-2,1.957415739E-2,5.892648518E-2,6.406001165E-2
1.490909063E1,3.976816532E-2,1.684802100E-2,6.879483104E-2,8.122863757E-2
1.491905362E1,1.092706419E-2,2.375445977E-2,-1.607516527E-2,3.069341997E-2
1.492901562E1,5.493540418E-2,1.588505767E-3,8.675689280E-2,1.026994666E-1
1.493897762E1,1.941757535E-2,2.524188180E-3,-4.018031180E-2,4.469755267E-2
1.494894062E1,4.239857183E-2,-7.731352989E-3,5.068308055E-2,6.652959767E-2
1.495890263E1,2.263289985E-2,2.818960939E-3,-2.206739187E-2,3.173585481E-2
1.496886562E1,2.830309334E-2,5.090640765E-3,4.260105908E-2,5.139873491E-2
1.497882762E1,1.961017258E-2,-3.485506978E-3,1.116818190E-2,2.283497131E-2
1.498879063E1,1.367521444E-2,1.335522328E-3,8.327604532E-3,1.606686363E-2
1.499875262E1,2.164057482E-2,2.358638886E-3,2.614114702E-2,3.401818960E-2
1.500871562E1,2.186320756E-3,2.550391015E-3,1.027297318E-2,1.080825938E-2
1.501867762E1,1.473261943E-2,9.658595268E-3,3.691581130E-2,4.090373653E-2
1.502864062E1,1.734883731E-3,8.454068843E-3,7.124247551E-3,1.119088936E-2
1.503860263E1,1.304878920E-2,4.279266503E-3,2.613413036E-2,2.952246248E-2
1.504856562E1,1.969447984E-2,2.575755140E-2,3.197023630E-2,4.553482183E-2
1.505852762E1,2.853692486E-2,2.899069620E-2,1.236218333E-2,4.251635125E-2
1.506848963E1,2.859094537E-2,7.130990122E-3,2.633001208E-3,2.958421661E-2
1.507845262E1,2.633051458E-2,1.803920846E-3,4.903475046E-2,5.568623601E-2
1.508841462E1,1.223270177E-2,1.138010692E-2,6.074087620E-3,1.777752419E-2
1.509837762E1,3.640842830E-2,-7.877314109E-3,4.065101266E-2,5.513737896E-2
1.510833962E1,2.535670192E-2,3.263056967E-3,2.627914131E-2,3.666337602E-2
1.511830262E1,3.731415743E-2,9.392071869E-3,2.133941352E-2,4.399918100E-2
1.512826462E1,2.123013683E-2,6.833531298E-3,-9.042719007E-3,2.406629649E-2
1.513822762E1,3.015822300E-2,5.419035014E-3,-9.485353231E-3,3.207578964E-2
1.514818963E1,2.666184614E-2,-8.359691128E-4,-3.793673515E-3,2.694336361E-2
1.515815262E1,2.741048846E-2,-8.823868688E-3,9.979442954E-3,3.047597115E-2
1.516811462E1,2.050061445E-2,-7.711015642E-4,2.225859582E-2,3.027069339E-2
1.517807762E1,8.105631892E-3,7.756865852E-1,1.054837704E-2,7.758006497E-1
1.518803962E1,2.708330705E-2,3.669316395E-1,-5.391542137E-2,3.718591215E-1
1.519800262E1,-1.557562119E-1,6.643915596E-1,8.776787639E-2,6.880256842E-1
1.520796462E1,1.819041563E-1,3.181558476E-1,-1.615772796E-1,4.005240101E-1
1.521792662E1,-9.220166470E-2,1.295487173E-2,3.901630658E-1,4.011186777E-1
1.522788963E1,-8.230495985E-2,2.849451062E-1,-3.629559714E-1,4.687268470E-1
1.523785162E1,1.499907477E-1,-7.944688652E-2,1.841592264E-1,2.504469062E-1
1.524781462E1,-1.692558797E-2,-1.035878472E-1,4.178595722E-2,1.129733767E-1
1.525777662E1,-2.129137865E-1,-1.018340845E-1,-7.800361097E-2,2.485699591E-1
1.526773962E1,-1.144766693E-1,-8.949121529E-2,1.375206649E-2,1.459544612E-1
1.527770163E1,2.373820999E-1,4.140634501E-2,2.371753460E-1,3.381078105E-1
1.528766462E1,2.734218887E-1,2.189082606E-1,1.011047906E-1,3.645579987E-1
1.529762662E1,2.418739492E-1,2.368561063E-1,-4.478446788E-1,5.613988588E-1
1.530758963E1,4.286452000E-1,-3.487321807E-1,3.112847114E-1,6.342310406E-1
1.531755162E1,3.167590665E-2,-2.944618151E-1,8.193410933E-2,3.072854079E-1
1.532751462E1,-1.092055780E-1,-5.888385167E-1,-2.403556466E-1,6.453119353E-1
1.533747662E1,1.030623561E-1,-6.507949559E-1,3.494553351E-1,7.458384243E-1
1.534743862E1,-4.416501568E-2,-3.403765461E-1,-9.213808537E-2,3.553817223E-1
1.535740162E1,2.351655061E-3,-4.893607870E-2,-2.761055231E-3,4.907029148E-2
1.536736362E1,2.841600627E-2,3.030747090E-2,8.255566835E-2,9.241996852E-2
1.537732662E1,-8.784687775E-3,1.378579762E-2,-2.896067441E-2,3.325567045E-2
1.538728863E1,1.225269536E-2,1.082089383E-2,8.375376284E-2,8.533412610E-2
1.539725162E1,-4.520338810E-3,2.521328526E-2,-1.534075499E-2,2.985769549E-2
1.540721362E1,2.177715984E-2,1.631851908E-2,4.378804386E-2,5.155513108E-2
1.541717662E1,1.717519213E-2,1.961841350E-2,-1.698966980E-2,3.112102590E-2
1.542713862E1,1.593593873E-2,1.881465890E-2,2.687087953E-2,3.646902383E-2
1.543710162E1,2.538840936E-2,1.448245682E-2,4.123631895E-2,5.054450401E-2
1.544706362E1,1.507676462E-2,-2.708740924E-3,-8.460921049E-3,1.749952267E-2
1.545702662E1,3.624114083E-2,-8.672151715E-4,8.752112389E-3,3.729305327E-2
1.546698863E1,2.517613488E-2,8.183342759E-3,-2.836835146E-2,3.880165242E-2
1.547695062E1,3.873177376E-2,-7.517874800E-3,2.447527528E-2,4.642960090E-2
1.548691400E1,2.841080087E-2,-1.461864213E-2,1.953730166E-2,3.745109424E-2
1.549687600E1,2.865800105E-2,-1.153067272E-2,2.867416084E-2,4.214789363E-2
1.550683900E1,2.027161830E-2,4.494754672E-3,1.340941966E-2,2.471748093E-2
1.551680100E1,1.299297685E-2,6.698789522E-3,5.930830836E-3,1.577548677E-2
1.552676400E1,3.018943137E-3,2.987707928E-3,-3.496634960E-3,5.501533638E-3
1.553672600E1,1.168756083E-2,6.076572686E-3,3.437636554E-2,3.681383329E-2
1.554668900E1,6.352565833E-3,1.179304825E-2,5.173090160E-2,5.343704015E-2
1.555665100E1,-1.946280676E-2,3.008052584E-2,-1.221623683E-1,1.273078282E-1
1.556661400E1,-1.142514144E-1,8.021860935E-2,-7.620676160E-2,1.590467903E-1
1.557657600E1,1.160993675E-2,-8.812194357E-2,5.029991251E-1,5.107919219E-1
1.558653900E1,-9.797405244E-1,1.562484561E-1,-6.312127769E-2,9.941274419E-1
1.559650100E1,3.401713454E-1,5.386710875E-3,1.925137281E-2,3.407582372E-1