"Time (s)","Linear Acceleration x (m/s^2)","Linear Acceleration y (m/s^2)","Linear Acceleration z (m/s^2)","Absolute acceleration (m/s^2)"
-2.781833406E-3,-6.940490120E-2,-1.209847391E-2,-1.275043845E-2,7.159599892E-2
7.180166664E-3,-3.076882991E-2,5.962990522E-3,6.603267945E-2,7.309304280E-2
1.714216662E-2,1.120529618E-1,2.157797992E-2,1.646698719E-1,2.003438100E-1
2.710516669E-2,1.744445070E-2,-1.555359364E-2,1.240574874E-1,1.262397850E-1
3.706716665E-2,-1.413791420E-2,-4.685607791E-2,-2.998748202E-2,5.739879557E-2
4.702916660E-2,4.918450770E-2,-1.496711791E-2,-9.624224603E-2,1.091132455E-1
5.699116667E-2,-1.713165664E-3,7.078639269E-3,-6.656700533E-2,6.696423127E-2
6.695250003E-2,-1.263726285E-2,2.120785117E-2,-2.153767068E-2,3.276193862E-2
7.691449998E-2,-3.604014507E-2,4.370208979E-3,-7.029467840E-2,7.911594400E-2
8.687749994E-2,-2.080791076E-3,-3.767945766E-3,-4.845295250E-2,4.864376335E-2
9.683950001E-2,8.207974155E-3,5.472409129E-3,-3.091422915E-3,1.033803642E-2
1.068015000E-1,4.707469982E-3,3.024823129E-2,2.857647579E-2,4.187756844E-2
1.167635000E-1,2.264857770E-2,3.175798237E-2,3.429563742E-2,5.193956356E-2
1.267255000E-1,8.650498744E-3,3.874949813E-3,-1.608221848E-2,1.866772926E-2
1.366884999E-1,8.067019712E-3,-4.698822498E-3,-1.704054058E-2,1.943027954E-2
1.466505000E-1,-5.616142826E-2,3.431789339E-2,2.104126765E-1,2.204661386E-1
1.566125000E-1,-4.978222562E-2,8.006416976E-2,-1.409406648E-1,1.695665423E-1
1.665745000E-1,-4.655222826E-2,2.643526196E-2,-3.476699609E-2,6.383319707E-2
1.765365000E-1,-2.809948917E-2,4.999369383E-3,-6.334058482E-2,6.947376967E-2
1.864984999E-1,-7.392213567E-2,-1.040921330E-2,-1.417499926E-1,1.602057872E-1
1.964615000E-1,-5.392214110E-2,1.016772330E-2,-1.773939979E-1,1.856868611E-1
2.064235000E-1,1.069259313E-3,2.811575174E-2,-1.764601976E-1,1.786892278E-1
2.163854999E-1,7.932277936E-3,2.650776744E-2,-1.338322413E-1,1.366625464E-1
2.263475000E-1,-1.626877206E-2,5.491120219E-3,-1.225365901E-1,1.237337515E-1
2.363094999E-1,-1.864133463E-3,1.891515791E-2,-1.168922728E-1,1.184274531E-1
2.462725000E-1,-6.958967778E-3,-2.613588452E-2,-1.439216119E-1,1.464409166E-1
2.562345000E-1,7.516088658E-3,3.216436386E-2,-1.634138535E-1,1.667187014E-1
2.661964999E-1,-3.401092370E-3,6.987422705E-2,-8.737435877E-2,1.119296815E-1
2.761585000E-1,2.528279860E-2,-4.642104506E-3,-3.592065174E-2,4.417083043E-2
2.861204999E-1,2.406338462E-2,-8.349180758E-2,2.983826838E-2,9.187083690E-2
2.960825000E-1,-5.785219178E-2,-6.733945906E-2,1.592670447E-1,1.823388888E-1
3.060455000E-1,2.213912533E-2,-1.430112004E-2,1.846947948E-1,1.865658869E-1
3.160074999E-1,8.729578681E-2,2.056173384E-2,9.688485503E-2,1.320227800E-1
3.259695000E-1,-7.397378760E-2,5.993980765E-3,5.203378737E-2,9.063974893E-2
3.359315000E-1,-5.230786647E-3,-9.469565749E-3,1.793889217E-3,1.096594013E-2
3.458935000E-1,2.080110423E-3,3.981953859E-3,-5.350436211E-2,5.369263991E-2
3.558565000E-1,-4.013400459E-2,4.123456478E-3,-4.483411074E-2,6.031449829E-2
3.658184999E-1,-2.233907544E-1,1.421282709E-2,-2.386155883E-1,3.271740096E-1
3.757805000E-1,-3.029950406E-2,1.174179375E-2,-4.034871161E-1,4.047935060E-1
3.857425000E-1,1.911204828E-1,7.016483366E-2,-2.597825090E-1,3.300561995E-1
3.957045000E-1,-6.911998648E-2,4.340037346E-2,8.096376389E-1,8.137409117E-1
4.056665000E-1,-2.669217400E-2,9.856768370E-2,3.132294953E-2,1.068137987E-1
4.156294999E-1,6.257649535E-2,3.424772680E-2,-8.310939968E-2,1.095257818E-1
4.255915000E-1,-8.388589164E-2,-4.508437157E-2,9.619612612E-2,1.353629863E-1
4.355535000E-1,6.386701696E-2,-9.033948183E-4,-1.292527020E-1,1.441737596E-1
4.455155000E-1,-2.577229278E-2,-1.198269904E-2,9.891325414E-2,1.029156353E-1
4.554775000E-1,2.515694642E-2,2.842506945E-2,-2.054009914E-2,4.315961306E-2
4.654394999E-1,7.638907596E-3,-3.114636362E-2,6.054729681E-2,6.851586697E-2
4.754025000E-1,1.991721536E-3,-6.164894879E-2,8.010272484E-2,1.010989929E-1
4.853645000E-1,1.358302714E-2,-4.472827613E-2,1.937412780E-2,5.060112785E-2
4.953265000E-1,-6.828451529E-5,-2.691707253E-2,5.970467649E-2,6.549184569E-2
5.052885000E-1,-1.863941601E-3,-1.300011456E-2,9.335664511E-3,1.611309681E-2
5.152504999E-1,-2.318048703E-2,-2.154465079E-2,-2.500561774E-2,4.033345851E-2
5.252135000E-1,2.253032690E-3,2.231180549E-2,-1.296495818E-2,2.590333880E-2
5.351755000E-1,-2.397791477E-2,4.356409550E-2,-6.316271983E-2,8.038843194E-2
5.451374999E-1,-1.322422280E-2,5.599586070E-2,-4.056440078E-2,7.039806172E-2
5.550995000E-1,-3.417540862E-2,2.082485855E-2,-5.309271812E-2,6.648661524E-2
5.650614999E-1,5.369237750E-3,1.303870618E-2,-7.892747104E-2,8.017719288E-2
5.750235000E-1,4.086915948E-3,4.162749767E-2,-5.927154399E-2,7.254424424E-2
5.849865000E-1,-1.045774976E-2,5.913990855E-2,-5.668466270E-2,8.258355950E-2
5.949484999E-1,-6.686839275E-3,2.980267346E-2,-4.083987772E-2,5.099812523E-2
6.049105000E-1,2.209841409E-2,-1.029109955E-3,-2.891791664E-2,3.640940642E-2
6.148725000E-1,2.733301057E-2,-2.243869007E-2,1.617873408E-2,3.888881221E-2
6.248345000E-1,2.161473515E-3,-8.835142851E-4,2.575990856E-2,2.586552636E-2
6.347975000E-1,-1.648243298E-3,4.652629495E-3,2.429167271E-2,2.478808242E-2
6.447594999E-1,1.086559762E-2,9.582417011E-3,4.498504199E-2,4.726032089E-2
6.547215000E-1,-3.149853959E-2,-3.398401737E-2,3.974235535E-2,6.104528025E-2
6.646835000E-1,-2.342026399E-2,-2.816603780E-2,3.594217680E-2,5.131933869E-2
6.746455000E-1,-1.830865547E-2,-1.815151155E-2,-1.887777228E-2,3.195394378E-2
6.846075000E-1,-2.092222839E-2,1.446484208E-2,-1.469639182E-2,2.937609964E-2
6.945704999E-1,-1.743400794E-2,2.852564156E-2,-4.159533799E-2,5.336505412E-2
7.045325000E-1,-2.926040359E-2,2.103594303E-2,-5.151634533E-2,6.286983342E-2
7.144945000E-1,-1.414324065E-2,3.151356876E-2,-7.649970710E-2,8.393653233E-2
7.244565000E-1,-3.841033678E-2,3.630711615E-2,-6.894568920E-2,8.687386669E-2
7.344185000E-1,3.650942068E-3,5.038311839E-2,-7.232413732E-2,8.821886893E-2
7.443814999E-1,3.047221620E-3,5.323889852E-2,-5.042993266E-2,7.339512234E-2
7.543435000E-1,5.347644165E-4,3.812793911E-2,-3.158263899E-2,4.951251154E-2
7.643055000E-1,6.156400885E-3,1.089160860E-2,-3.757424433E-2,3.960242728E-2
7.742675000E-1,3.426313056E-3,-2.575698495E-3,1.038984440E-2,1.123933764E-2
7.842295000E-1,7.546809381E-3,-1.110503197E-2,2.380949669E-3,1.363616472E-2
7.941914999E-1,1.466585839E-2,-8.559154272E-3,2.974887908E-2,3.425408487E-2
8.041545000E-1,-6.665949184E-3,-4.358982325E-2,3.893894792E-2,5.882813301E-2
8.141165000E-1,1.237545834E-2,-4.000723422E-2,4.032587092E-2,5.813696436E-2
8.240784999E-1,-1.394388714E-2,-1.666573405E-2,1.297435027E-2,2.530834734E-2
8.340405000E-1,-8.666213136E-3,1.086471140E-2,2.593590975E-2,2.942476200E-2
8.440024999E-1,-3.371627885E-2,-7.776796818E-5,1.680957556E-2,3.767433261E-2
8.539655000E-1,-7.653653543E-3,-1.790183544E-2,-1.816788375E-2,2.662942216E-2
8.639275000E-1,-3.837388761E-2,9.326893687E-3,-4.700576663E-3,3.976985815E-2
8.738894999E-1,-7.819006406E-3,1.994719148E-2,-3.879152499E-2,4.431489276E-2
8.838515000E-1,-2.620901126E-2,3.655796170E-2,-4.500367999E-2,6.362961612E-2
8.938134999E-1,-1.076386521E-2,4.493819118E-2,-7.010577679E-2,8.396500318E-2
9.037755000E-1,-7.846890315E-3,3.131944120E-2,-5.307744227E-2,6.212645140E-2
9.137385000E-1,2.495933337E-2,6.604839385E-2,-5.117190778E-2,8.720047476E-2
9.237004999E-1,-2.027488680E-2,3.522011876E-2,-6.238807339E-2,7.445669548E-2
9.336625000E-1,2.509802659E-2,-1.491975546E-2,-2.464023985E-2,3.820538524E-2
9.436245000E-1,-1.196041110E-2,1.592547655E-2,-3.186502296E-2,3.757727938E-2
9.535865000E-1,2.239509176E-2,-3.230001926E-3,2.042838078E-2,3.048428757E-2
9.635495000E-1,-2.978096567E-3,5.450774431E-3,1.758959413E-2,1.865405646E-2
9.735114999E-1,9.251542264E-3,4.555565715E-3,8.698318005E-3,1.349092100E-2
9.834735000E-1,-3.213932590E-2,-1.715046823E-2,4.690110147E-2,5.938676746E-2
9.934355000E-1,-1.190831606E-2,-3.646616042E-2,3.450990133E-3,3.851620672E-2
1.003397500E0,-2.074913710E-2,-3.183867395E-2,2.136631072E-2,4.359755822E-2
1.013359500E0,-3.737717489E-2,-8.652125001E-3,1.448530734E-2,4.100898192E-2
1.023322500E0,-2.805029034E-2,2.845489025E-2,-9.156154990E-3,4.099188629E-2
1.033284500E0,-3.849213841E-2,4.625732303E-2,-7.022505999E-4,6.018203892E-2
1.043246500E0,-2.065390515E-2,2.170837283E-2,-4.214618225E-2,5.171206752E-2
1.053208500E0,-5.537043703E-3,1.750890255E-2,-1.397835374E-2,2.307845087E-2
1.063170750E0,-2.842413755E-3,1.784570217E-3,-4.768170476E-2,4.779967548E-2
1.073132750E0,7.779925992E-3,2.303802967E-2,-3.175392587E-2,3.999487302E-2
1.083095750E0,1.217978675E-2,3.950554311E-2,-4.047968924E-2,5.785879694E-2
1.093057750E0,2.127848371E-2,3.667373657E-2,-4.462130863E-2,6.155321281E-2
1.103019750E0,2.344573135E-2,7.031861544E-3,-5.504641905E-3,2.508885166E-2
1.112981750E0,1.327093201E-2,-4.338634014E-3,-3.150779463E-2,3.446276983E-2
1.122943750E0,9.979616543E-3,-1.197100461E-2,9.166058712E-3,1.808077238E-2
1.132906750E0,5.883646547E-3,2.547047138E-3,1.340532660E-2,1.485959378E-2
1.142868750E0,3.893459905E-3,3.142878413E-3,2.125112057E-2,2.183224313E-2
1.152830750E0,-2.274441722E-2,9.278361797E-3,1.903381985E-2,3.107543741E-2
1.162792750E0,-2.293118551E-2,-6.028479338E-4,1.293637991E-2,2.633538721E-2
1.172754750E0,-1.621250632E-2,-4.552057385E-2,1.524661481E-2,5.066978654E-2
1.182716750E0,-4.596366032E-2,-9.003542662E-3,-3.453365564E-3,4.696432247E-2
1.192679750E0,-3.420876972E-2,2.811048925E-2,-1.658917207E-2,4.728255663E-2
1.202641750E0,-3.118400507E-2,4.681514740E-2,-4.326588750E-2,7.096504223E-2
1.212603750E0,-2.594731182E-2,3.169307828E-2,-2.747423910E-2,4.932086795E-2
1.222565750E0,-1.608761801E-2,1.373160124E-2,-3.289526582E-2,3.910839858E-2
1.232527750E0,-4.839717555E-3,3.106040955E-3,-5.045036137E-2,5.077705504E-2
1.242490750E0,4.944003560E-3,2.391218841E-2,-2.964421391E-2,3.840592851E-2
1.252452750E0,1.890897722E-2,3.888339937E-2,-4.826408744E-2,6.479884491E-2
1.262414750E0,1.992595877E-2,2.481909156E-2,-1.380586088E-2,3.469341340E-2
1.272376750E0,1.956878526E-2,1.554014504E-2,-1.922915339E-2,3.153083895E-2
1.282338750E0,2.431897646E-2,-8.408880830E-3,-4.003003836E-3,2.604123524E-2
1.292300750E0,9.456162835E-3,1.853275001E-2,-1.353688896E-2,2.482194999E-2
1.302263750E0,-1.065274984E-2,3.904185891E-2,-8.217676878E-3,4.129501228E-2
1.312225750E0,-7.144150925E-3,5.063688755E-3,6.425505280E-3,1.086125934E-2
1.322187750E0,-2.583160090E-2,-4.088840961E-2,-6.036080718E-3,4.873979808E-2
1.332149750E0,-1.461792036E-2,-1.708556414E-2,3.939269185E-3,2.282800778E-2
1.342111750E0,-3.431673765E-2,2.524827719E-3,3.449491784E-4,3.441122241E-2
1.352074750E0,-3.167335306E-2,6.709095240E-3,1.351942040E-2,3.508543831E-2
1.362036750E0,-1.828395098E-2,-7.816557884E-3,4.052120447E-3,2.029337628E-2
1.371998750E0,-2.037923219E-2,-1.471451819E-2,9.534469843E-3,2.688375468E-2
1.381960750E0,-1.040850981E-2,3.093060136E-2,-2.859346926E-2,4.338923439E-2
1.391922750E0,-2.580763645E-2,5.263488114E-2,-6.780372798E-2,8.963152537E-2
1.401884750E0,3.623770787E-3,-7.992559075E-3,-3.121126771E-2,3.242153524E-2
1.411847750E0,-2.888803189E-3,3.678483367E-3,-3.007460553E-2,3.043613513E-2
1.421809750E0,2.750183521E-2,4.483995795E-2,-2.914486170E-2,6.013647589E-2
1.431771750E0,1.079449913E-2,5.771845043E-2,-1.832868218E-2,6.151326135E-2
1.441733750E0,1.849693581E-2,3.272569656E-2,-3.205443621E-2,4.940237576E-2
1.451695750E0,1.108616556E-2,-5.890485048E-3,-1.507763028E-2,1.961978124E-2
1.461657750E0,1.763066625E-2,-7.837023139E-3,-3.362616777E-2,3.876826645E-2
1.471620750E0,-6.841411334E-3,1.027414262E-2,-6.513250060E-3,1.395655194E-2
1.481582750E0,-2.671049223E-3,1.536472857E-2,-1.326210637E-2,2.047175745E-2
1.491544750E0,-2.341506545E-2,7.283291817E-3,7.677394152E-4,2.453367183E-2
1.501506750E0,-2.186189879E-2,-1.621842206E-2,-2.948787399E-3,2.738019685E-2
1.511468750E0,-4.158823453E-2,-7.537060976E-3,1.473436218E-2,4.476036158E-2
1.521431750E0,-2.598112060E-2,-3.646908402E-3,3.990103416E-3,2.653751107E-2
1.531393750E0,-2.277036424E-2,1.895082593E-2,-5.488781333E-3,3.012888998E-2
1.541355750E0,-3.207235701E-2,9.215211868E-3,-7.314282060E-3,3.416218576E-2
1.551317750E0,-1.495617265E-2,6.817853451E-3,-2.039508820E-3,1.656290500E-2
1.561279750E0,-1.077706255E-2,1.504137754E-2,-1.680431306E-2,2.499546065E-2
1.571241750E0,1.090018756E-2,1.982439995E-2,-1.145235658E-2,2.535699890E-2
1.581204750E0,9.998583449E-3,1.143539965E-2,-2.059276063E-2,2.558909585E-2
1.591166750E0,2.196920890E-2,3.238714278E-2,-2.888941146E-2,4.864330634E-2
1.601128750E0,8.380211201E-3,3.044001997E-2,-3.066046000E-2,4.401007342E-2
1.611090750E0,1.722934626E-2,3.762507856E-2,-3.365427095E-2,5.333954314E-2
1.621052750E0,2.128048455E-2,1.786616743E-2,-3.770171363E-2,4.683458308E-2
1.631014750E0,-7.382758437E-3,8.591313958E-3,-2.613595761E-2,2.848515540E-2
1.640977750E0,-6.255739597E-3,1.248497486E-2,-1.136121310E-2,1.800238980E-2
1.650939750E0,-4.535539001E-3,1.817373097E-2,-9.288375154E-3,2.090764273E-2
1.660901750E0,-2.920884303E-2,1.084249198E-2,6.810252070E-3,3.189193749E-2
1.670863750E0,-4.139309742E-2,-1.654762030E-2,1.034836572E-2,4.576353269E-2
1.680825750E0,-2.673538401E-2,-2.687789619E-2,1.081150174E-3,3.792586120E-2
1.690788750E0,-1.924797412E-2,-1.056416452E-2,6.231450811E-3,2.282360749E-2
1.700750750E0,-1.604346240E-2,1.552435756E-3,-2.884431481E-3,1.637445228E-2
1.710712750E0,-1.454195681E-2,3.942192793E-3,1.024439491E-2,1.821968767E-2
1.720674750E0,-1.146396878E-2,1.262296915E-2,-1.551302858E-3,1.712216315E-2
1.730636750E0,6.276419554E-3,2.290354371E-3,-3.169896204E-2,3.239542190E-2
1.740598750E0,1.038498390E-2,1.156053007E-2,-2.610723317E-2,3.038225419E-2
1.750561750E0,9.405040811E-3,3.744907737E-2,-2.536233444E-2,4.619671197E-2
1.760523750E0,1.464698742E-2,2.382564962E-2,-2.503426909E-2,3.753545590E-2
1.770485750E0,1.774465498E-3,2.218550563E-2,-2.470857918E-2,3.325446245E-2
1.780447750E0,2.374652491E-2,2.218550563E-2,-1.588564239E-2,3.617247213E-2
1.790409750E0,2.077836861E-2,1.694756985E-2,-1.202531062E-2,2.938654150E-2
1.800372750E0,1.106936395E-2,3.251695096E-2,-2.209787048E-2,4.084358944E-2
1.810334750E0,-9.085143297E-3,1.844738066E-2,-7.307886668E-3,2.182317322E-2
1.820296750E0,-1.320507317E-2,-1.507704556E-2,-1.626234926E-2,2.580998380E-2
1.830258750E0,-2.606537533E-2,-1.462739468E-2,-7.295644060E-3,3.076671721E-2
1.840220750E0,-3.340192249E-2,6.177583337E-3,9.202311449E-3,3.519280463E-2
1.850182750E0,-1.770703637E-2,1.365909576E-2,-5.104692355E-3,2.293835038E-2
1.860145750E0,-2.332088873E-3,-3.853315115E-3,2.958106399E-3,5.388605511E-3
1.870107750E0,-4.462092491E-3,-8.595407009E-4,1.614240825E-2,1.676980691E-2
1.880069750E0,-1.166596267E-2,-1.134184420E-2,2.894444838E-3,1.652603782E-2
1.890031750E0,-4.503840697E-3,1.919465482E-2,-1.849408530E-2,2.703239808E-2
1.899993750E0,7.024908839E-3,1.364974022E-2,-2.271822352E-2,2.741865117E-2
1.909956750E0,8.231924898E-3,7.808956504E-3,-7.989087291E-3,1.387695590E-2
1.919918750E0,2.356733516E-2,2.441914201E-2,-2.031673551E-2,3.955355262E-2
1.929880750E0,2.960934076E-3,2.381220102E-2,-3.992478848E-2,4.658086284E-2
1.939842750E0,2.474018156E-2,2.381278574E-2,-1.418465082E-2,3.715278815E-2
1.949804750E0,2.599115680E-2,3.594108045E-2,-2.489912532E-2,5.086519377E-2
1.959766750E0,-5.099777039E-3,-7.765102386E-3,-2.690833826E-2,2.846687915E-2
1.969729750E0,2.042610128E-2,4.058143079E-2,-2.026824016E-2,4.974816276E-2
1.979691750E0,-2.289771477E-2,2.651302993E-2,-2.794446487E-2,4.481226634E-2
1.989653750E0,-9.273725138E-3,9.897581935E-3,7.970924377E-3,1.573212451E-2
1.999615750E0,-3.297769329E-2,-1.824155867E-2,-2.588682968E-2,4.572100905E-2
2.009577750E0,-1.853205109E-2,-1.328487396E-3,1.006130397E-2,2.112892884E-2
2.019539750E0,-2.784999579E-2,-3.877873421E-3,-3.315371275E-3,2.831345713E-2
2.029502750E0,-1.393030150E-2,-1.450401843E-2,4.286520705E-3,2.056195784E-2
2.039464750E0,-3.805612799E-2,-1.046827018E-2,9.045021348E-3,4.049278910E-2
2.049426750E0,-1.942614518E-2,-7.180965543E-3,-3.100230284E-3,2.094165252E-2
2.059388750E0,1.252656318E-3,2.389172316E-3,-3.657506481E-3,4.544738261E-3
2.069350625E0,-3.935555289E-3,2.409052849E-2,-1.778664529E-2,3.020276327E-2
2.079313625E0,2.125936149E-2,-1.633595109E-2,5.632038116E-3,2.739605085E-2
2.089275625E0,8.620540900E-3,1.019754410E-3,2.656974792E-3,9.078168291E-3
2.099237625E0,2.143970698E-2,1.972148895E-2,-3.097800035E-2,4.252334262E-2
2.109199625E0,2.564627614E-2,2.211066127E-2,-1.575006008E-2,3.734537742E-2
2.119161625E0,7.690883861E-3,3.917517543E-2,-4.643336076E-2,6.123643569E-2
2.129123625E0,-3.264468522E-3,3.558323085E-2,-3.060081840E-2,4.704501205E-2
2.139086625E0,1.591658696E-2,1.687447965E-2,-3.812552713E-2,4.462781221E-2
2.149048625E0,-1.383014509E-2,2.658728957E-3,-2.491615534E-2,2.862091106E-2
2.159010625E0,-1.624339606E-2,1.194001436E-2,-5.757168531E-3,2.096561108E-2
2.168972625E0,-2.826835494E-2,1.268962741E-2,-1.549395204E-2,3.464374524E-2
2.178934625E0,-8.677441617E-3,1.658270359E-2,-3.849258609E-3,1.910761218E-2
2.188897625E0,-3.597356447E-2,-1.005838037E-2,8.956764936E-3,3.841213343E-2
2.198859625E0,-1.873757615E-2,-1.814274073E-2,2.455889046E-2,3.582450142E-2
2.208821625E0,-2.678877183E-2,-3.344607353E-4,1.895733096E-2,3.281966723E-2
2.218783625E0,-1.187866428E-2,-6.326102614E-3,2.866305113E-3,1.376001251E-2
2.228745625E0,-2.789243835E-2,7.143543363E-3,2.478057303E-2,3.798809193E-2
2.238707625E0,2.269085124E-3,1.133716643E-2,-3.697779179E-3,1.213893162E-2
2.248670625E0,1.633210015E-2,1.450109482E-3,3.907109499E-3,1.685543881E-2
2.258632625E0,2.564612539E-2,1.401928425E-2,-2.564004064E-2,3.888027472E-2
2.268594625E0,2.392651866E-2,1.057527423E-2,-2.397829849E-2,3.548624408E-2
2.278556625E0,1.172287253E-2,1.700428784E-2,-6.318501234E-3,2.159849539E-2
2.288518625E0,-1.158114150E-4,3.524701595E-3,-1.978113055E-2,2.009303510E-2
2.298480625E0,6.163422111E-3,1.504780948E-2,-1.957289658E-2,2.544646583E-2
2.308443625E0,1.774342158E-3,2.732345402E-2,-2.752755839E-2,3.882635575E-2
2.318405625E0,-7.969732094E-3,2.043601871E-2,-2.839064397E-2,3.587723728E-2
2.328367625E0,-8.387310086E-3,2.867123723E-2,-2.529103495E-2,3.914106876E-2
2.338329625E0,-1.325696721E-2,7.715401053E-3,-2.037758309E-2,2.550530309E-2
2.348291625E0,-2.126071822E-2,1.160847723E-2,-1.232596714E-2,2.717911605E-2
2.358254625E0,-3.467428118E-2,1.295684516E-2,-1.475135565E-2,3.984705893E-2
2.368216625E0,-1.425754915E-2,8.768484592E-3,9.208999202E-4,1.676341512E-2
2.378178625E0,-1.855504252E-2,-2.908989787E-3,1.384445250E-2,2.333282429E-2
2.388140625E0,-1.522202910E-2,-2.175164223E-4,7.153995261E-3,1.682073516E-2
2.398102625E0,-4.512574975E-3,2.173410058E-3,9.643154964E-3,1.086634630E-2
2.408064625E0,-1.168534071E-2,-1.788838685E-2,-1.109863658E-2,2.407740238E-2
2.418027625E0,-1.043362543E-5,-1.459991276E-2,-1.563728191E-2,2.139350712E-2
2.427989625E0,7.027773061E-3,-3.083821535E-3,-3.175564349E-2,3.266987056E-2
2.437951625E0,-2.174935816E-4,2.340289593E-2,-2.488158368E-2,3.415898194E-2
2.447913625E0,1.470971708E-2,1.980451941E-2,-2.835249089E-2,3.758268890E-2
2.457875625E0,6.953773806E-3,9.923309684E-3,-1.604761027E-2,2.010852656E-2
2.467837625E0,6.239796798E-3,8.875488639E-3,-6.636516675E-3,1.271820413E-2
2.477800625E0,9.123529354E-4,2.444253087E-2,-1.036948878E-2,2.656682143E-2
2.487762625E0,-1.685626192E-2,1.770419955E-2,-2.036183216E-2,3.181472075E-2
2.497724625E0,-1.550076313E-2,7.882046700E-4,-2.366368175E-3,1.570014721E-2
2.507686625E0,-2.623933913E-2,1.470282376E-2,-1.452740729E-2,3.340241768E-2
2.517648625E0,-1.356009966E-2,2.712523341E-2,-3.723506927E-3,3.055354471E-2
2.527611625E0,-3.078754557E-2,1.545360625E-2,-1.652777631E-2,3.820803971E-2
2.537573625E0,-8.788438216E-3,9.167264700E-3,-1.982092816E-2,2.354027573E-2
2.547535625E0,-1.090391516E-2,7.670377493E-3,-1.189681806E-2,1.786796957E-2
2.557497625E0,3.836559188E-3,1.455781281E-2,-1.792113125E-2,2.340547042E-2
2.567459625E0,1.699612915E-2,1.236101389E-3,6.022047400E-3,1.807377679E-2
2.577421625E0,1.869992556E-2,-7.445844412E-3,-1.223639511E-2,2.355540660E-2
2.587384625E0,2.549635445E-2,-1.478117645E-2,1.399180233E-2,3.262388389E-2
2.597346625E0,1.969197879E-2,-1.165350080E-3,1.468528211E-2,2.459246999E-2
2.607308625E0,2.605023652E-2,-1.643710792E-2,1.580977477E-2,3.462285831E-2
2.617270625E0,-3.916264046E-5,8.847422004E-3,1.291065216E-2,1.565130503E-2
2.627232625E0,-8.035714268E-3,2.290822148E-2,-1.156396531E-2,2.689023259E-2
2.637195625E0,-1.027250266E-2,1.196983516E-2,-2.898640215E-2,3.300019355E-2
2.647157625E0,-2.309429085E-2,2.438873649E-2,-3.336483378E-2,4.734309739E-2
2.657119625E0,-4.365924066E-3,2.737666368E-2,-2.591252089E-2,3.794735493E-2
2.667081625E0,-1.078477357E-2,1.554306865E-2,-1.572612304E-2,2.460100140E-2
2.677043625E0,-5.646098843E-3,2.122948587E-2,-3.605860949E-2,4.222313134E-2
2.687005625E0,7.471599570E-4,5.715594828E-2,-2.574112438E-2,6.268944214E-2
2.696968625E0,-1.004183000E-2,3.575572371E-2,-4.426342249E-2,5.778027950E-2
2.706930625E0,6.744137420E-3,2.229017079E-2,-2.178080522E-2,3.188633844E-2
2.716892625E0,1.076437227E-2,2.155108273E-2,-3.813203216E-2,4.510402148E-2
2.726854625E0,-5.760105844E-3,1.841463625E-2,-3.844317712E-2,4.301343412E-2
2.736816625E0,5.905961897E-3,1.468001962E-2,-1.358900227E-2,2.085771667E-2
2.746778625E0,6.715339883E-3,-6.871063113E-3,8.620513491E-3,1.290815831E-2
2.756741625E0,3.480148553E-3,-1.779190779E-2,2.179783523E-2,2.835152619E-2
2.766703625E0,3.700003861E-3,-2.718955278E-4,2.509449542E-2,2.536725559E-2
2.776665625E0,-1.730266943E-2,-1.763344824E-2,4.569478434E-2,5.194549241E-2
2.786627625E0,-4.587903558E-3,-3.964412212E-2,3.250350237E-2,5.147021415E-2
2.796589625E0,-1.833096625E-2,-5.282725453E-2,2.912264228E-2,6.304658150E-2
2.806552625E0,-1.715362481E-2,-1.197509766E-2,1.681714039E-2,2.684149808E-2
2.816514625E0,-8.646433102E-3,1.660141468E-2,-1.303380914E-3,1.876343723E-2
2.826476625E0,-1.300994519E-2,2.093010843E-2,-7.353458405E-3,2.571772663E-2
2.836438625E0,-2.050655074E-2,1.597927094E-2,-2.689543784E-2,3.740615323E-2
2.846400625E0,6.757860105E-3,2.420396447E-2,-2.970736384E-2,3.891051318E-2
2.856362625E0,4.827991147E-3,2.539972007E-2,-5.555848897E-2,6.127969463E-2
2.866325625E0,1.798069063E-3,2.989330530E-2,-4.931954641E-2,5.769974361E-2
2.876287625E0,-1.078578313E-2,3.498564541E-2,-2.961735327E-2,4.709050984E-2
2.886249625E0,-9.639719725E-3,3.424363375E-2,-3.348941602E-2,4.885787177E-2
2.896211625E0,5.676033846E-3,2.795846164E-2,-2.066055179E-2,3.522430039E-2
2.906173625E0,-1.241756743E-4,1.433854222E-2,-1.351466954E-2,1.970420020E-2
2.916135625E0,9.227271751E-3,1.466481686E-3,-1.668152153E-2,1.911978748E-2
2.926098625E0,-3.959784689E-3,5.061934590E-3,-6.413847394E-3,9.079675929E-3
2.936060625E0,-3.682357147E-3,7.160500288E-3,-1.949118175E-2,2.108882843E-2
2.946022625E0,-4.899889058E-3,-6.312069297E-3,7.307850122E-3,1.082847196E-2
2.955984625E0,-1.006756232E-2,-5.110466480E-3,3.037043810E-3,1.169171988E-2
2.965946625E0,-6.542143528E-3,-9.598789215E-3,2.604583740E-2,2.851880156E-2
2.975909625E0,-9.083375428E-3,-1.079980731E-2,1.834044971E-2,2.314121091E-2
2.985871625E0,3.485141527E-3,-1.694347680E-2,4.247490540E-3,1.781204068E-2
2.995833625E0,-1.951086585E-2,-8.569679260E-3,1.145242967E-2,2.419238380E-2
3.005795625E0,-1.823966289E-2,-4.980073571E-3,-1.080492362E-3,1.893815986E-2
3.015757625E0,-1.390532293E-2,8.189025521E-3,-1.402571619E-2,2.138080586E-2
3.025719625E0,2.322153174E-3,1.042733967E-2,-1.388128996E-2,1.751605032E-2
3.035682625E0,-1.349843438E-3,1.236919999E-2,-2.053015888E-2,2.400638684E-2
3.045644625E0,-1.072164648E-3,3.242865801E-2,-3.925765771E-2,5.093064977E-2
3.055606625E0,1.059368839E-2,2.195454061E-2,-3.260356285E-2,4.070897195E-2
3.065568500E0,4.679325689E-4,2.420337975E-2,-2.684749067E-2,3.614983136E-2
3.075530500E0,7.703395989E-3,6.098061204E-3,-2.174466211E-2,2.386124453E-2
3.085492500E0,1.311883131E-2,8.642769456E-3,7.121908665E-4,1.572604256E-2
3.095455500E0,-9.481579950E-4,6.999117136E-3,-1.058704175E-2,1.272682589E-2
3.105417500E0,1.648462568E-3,-2.282168269E-3,1.234573804E-2,1.266266041E-2
3.115379500E0,-1.261043418E-2,-9.390628338E-4,1.452090226E-2,1.925516792E-2
3.125341500E0,-9.838863099E-3,2.825023770E-2,3.905355334E-3,3.016837678E-2
3.135303500E0,-2.318155141E-2,1.851871669E-2,-1.017780975E-4,2.967048285E-2
3.145266500E0,-1.938407263E-2,-8.131722808E-3,-4.933880568E-3,2.159190508E-2
3.155228500E0,-3.618462612E-3,-1.232534587E-2,7.542286925E-3,1.489609058E-2
3.165190500E0,-3.901540940E-3,-1.701539755E-3,5.670045018E-3,7.089899135E-3
3.175152500E0,-1.108023155E-2,-2.093303204E-4,-1.278669119E-2,1.692083987E-2
3.185114500E0,-1.362620518E-2,4.278992414E-3,7.017791681E-3,1.591328513E-2
3.195076500E0,5.198485348E-3,2.253633857E-2,-7.861617990E-3,2.442776788E-2
3.205039500E0,2.247432154E-3,3.211466253E-2,-3.207727689E-2,4.544616808E-2
3.215001500E0,3.946550796E-3,2.059038520E-2,-1.400470275E-2,2.521251525E-2
3.224963500E0,-6.313535669E-3,7.716570497E-3,-2.104010917E-2,2.328287755E-2
3.234925500E0,1.022632793E-2,6.815514565E-3,-2.111550171E-2,2.443140262E-2
3.244887500E0,-2.161551174E-4,2.238431096E-2,-3.447408713E-2,4.110434021E-2
3.254850500E0,-2.750703832E-3,3.271809518E-2,-3.038856447E-2,4.473818251E-2
3.264812500E0,1.636781842E-2,1.760362744E-2,-1.699727118E-2,2.943977592E-2
3.274774500E0,-1.018443811E-2,2.340055704E-3,8.070290498E-3,1.320334159E-2
3.284736500E0,-6.077120863E-3,-1.876313031E-2,4.426926970E-3,2.021346431E-2
3.294698500E0,-1.917517629E-2,-1.561849773E-2,-4.274899364E-3,2.509780113E-2
3.304660500E0,-3.203611798E-3,-8.734570742E-3,1.523733236E-2,1.785307122E-2
3.314623500E0,-9.996445561E-3,-2.298540473E-3,2.522452287E-3,1.056290574E-2
3.324585500E0,-3.407898895E-3,2.638848424E-3,3.758590221E-3,5.718767029E-3
3.334547500E0,-1.681710842E-2,-5.596370101E-3,3.742218018E-4,1.772778993E-2
3.344509500E0,-2.120155628E-2,-1.862338185E-3,5.031529069E-3,2.186985544E-2
3.354471500E0,-5.680204555E-4,1.278786063E-3,-1.736973882E-2,1.742600837E-2
3.364433500E0,-3.860674384E-3,1.445022404E-2,-1.345795155E-2,2.012039367E-2
3.374396500E0,-1.083267506E-2,1.399764955E-2,-2.791285336E-2,3.305160245E-2
3.384358500E0,-8.727723104E-3,1.519106627E-2,-1.361582637E-2,2.218856400E-2
3.394320500E0,-1.047193383E-2,2.432500184E-2,-2.251645803E-2,3.476144408E-2
3.404282500E0,1.804852746E-3,2.806897402E-2,-1.925539277E-2,3.408658016E-2
3.414244500E0,-8.811269766E-3,1.894030094E-2,-2.545000613E-2,3.292531376E-2
3.424207500E0,2.155557778E-3,1.085944891E-2,-2.474373557E-2,2.710768359E-2
3.434169500E0,-7.102822987E-3,6.968711615E-3,-2.836484313E-2,3.005956357E-2
3.444131500E0,-6.877650367E-3,2.223871529E-2,-2.314448554E-2,3.282574818E-2
3.454093500E0,-6.806524470E-6,2.373501778E-2,-2.688030817E-2,3.585947688E-2
3.464055500E0,-7.201051642E-3,5.929661393E-3,-1.206463315E-2,1.525029186E-2
3.474017500E0,-3.154020100E-3,-3.047568798E-3,-9.898787923E-3,1.082688878E-2
3.483980500E0,-1.416667520E-2,-1.831172526E-2,2.700478077E-2,3.557066421E-2
3.493942500E0,-1.829754576E-2,-3.940438628E-3,6.312617473E-3,1.975288275E-2
3.503904500E0,-1.701034976E-2,7.283876538E-3,-7.842797264E-3,2.009766965E-2
3.513866500E0,-6.299602850E-3,1.461745441E-2,8.195457458E-3,1.790308612E-2
3.523828500E0,-1.395245240E-2,3.987801075E-3,1.796264648E-2,2.309177676E-2
3.533791500E0,-3.789274399E-3,-1.682770193E-2,-1.614708602E-2,2.362749542E-2
3.543753500E0,6.507265801E-3,2.292108536E-4,-1.059223115E-2,1.243351948E-2
3.553715500E0,-2.170596999E-2,2.118153870E-2,-2.877341732E-3,3.046450082E-2
3.563677500E0,-2.028600108E-3,2.178029358E-2,-2.878763337E-2,3.615555617E-2
3.573639500E0,-1.542143743E-3,7.708384395E-3,-2.337892234E-2,2.466518614E-2
3.583601500E0,1.243090639E-3,2.791577697E-2,-5.277696848E-3,2.843747461E-2
3.593564500E0,8.329865760E-3,2.656974792E-2,-1.293290813E-2,3.070176348E-2
3.603526500E0,8.476754213E-3,1.878885806E-2,-2.166397054E-2,2.990324679E-2
3.613488500E0,1.510806778E-2,2.433084905E-2,-1.186286766E-2,3.099954123E-2
3.623450500E0,5.520063937E-3,1.115707219E-2,-1.872983772E-2,2.248906816E-2
3.633412500E0,-1.155261805E-2,6.817853451E-4,-9.808740802E-3,1.517033985E-2
3.643374500E0,-1.751654504E-2,2.103886664E-2,-1.532792766E-2,3.137528687E-2
3.653337500E0,-1.105068484E-2,1.070742130E-2,-7.648742795E-3,1.718341563E-2
3.663299500E0,-1.287812246E-2,1.878768861E-2,-1.657093607E-2,2.816769788E-2
3.673261500E0,-4.085705392E-3,-7.106705904E-3,-8.068061247E-3,1.150182028E-2
3.683223500E0,-2.640888097E-2,-4.409970045E-3,1.327317953E-3,2.680743559E-2
3.693185500E0,-1.118499264E-2,-4.563167095E-3,7.824743986E-3,1.439281671E-2
3.703148500E0,-1.903704038E-2,1.474901676E-2,4.640350342E-3,2.452499242E-2
3.713110500E0,-1.548032985E-2,-3.663280606E-3,3.621253744E-3,1.631483116E-2
3.723072500E0,-3.937789109E-3,1.130617619E-2,-8.809926733E-3,1.486440756E-2
3.733034500E0,-7.646307978E-3,1.130383730E-2,-1.864786707E-2,2.310813081E-2
3.742996500E0,-8.229617989E-3,4.717533588E-3,-6.381651163E-3,1.143272526E-2
3.752958500E0,-2.449389501E-3,1.040570498E-2,-6.680370793E-3,1.260577482E-2
3.762921500E0,-7.569650067E-3,9.957223535E-3,-7.176214680E-3,1.442026213E-2
3.772883500E0,5.170615143E-3,3.218892217E-3,-8.472652026E-3,1.043467107E-2
3.782845500E0,5.616442496E-3,1.025133848E-2,-9.162586927E-3,1.485218389E-2
3.792807500E0,2.806965010E-3,6.055376530E-3,-1.371062435E-2,1.524886414E-2
3.802769500E0,-4.310206496E-3,1.204000175E-2,-1.965073764E-2,2.344549023E-2
3.812731500E0,-1.344228740E-2,1.458295584E-2,-1.782640636E-2,2.666717936E-2
3.822694500E0,-9.105110625E-3,8.145171404E-3,-6.108586192E-3,1.365875843E-2
3.832656500E0,-1.985602516E-2,2.326080859E-2,-3.764846742E-2,4.850498996E-2
3.842618500E0,-2.183245257E-2,2.910159230E-3,-2.505363800E-2,3.335880377E-2
3.852580500E0,-4.758084943E-3,1.564013243E-2,-3.237552144E-2,3.626882274E-2
3.862542500E0,-2.125385231E-2,2.567161560E-2,-2.058621906E-2,3.917333916E-2
3.872505500E0,-5.733062471E-3,1.683588803E-2,-8.848627992E-3,1.986487725E-2
3.882467500E0,-7.401510640E-3,1.309834778E-2,-8.631659746E-3,1.734516141E-2
3.892429500E0,-1.126812360E-2,1.504488587E-2,-7.459877729E-3,2.022298139E-2
3.902391500E0,-1.664163256E-3,-8.156865835E-3,-2.523658276E-3,8.699008604E-3
3.912353500E0,6.597354035E-3,-5.612742305E-3,1.833686829E-3,8.853833284E-3
3.922315500E0,2.430852000E-3,-1.414909244E-2,1.089157205E-2,1.802032741E-2
3.932278500E0,-8.349645794E-3,2.759301066E-3,7.272182107E-3,1.141117697E-2
3.942240500E0,4.256307045E-3,2.191536427E-2,-3.424750753E-3,2.258601909E-2
3.952202500E0,4.192590667E-3,1.772057176E-2,-1.337616362E-2,2.259465054E-2
3.962164500E0,-1.009466965E-2,-5.188234448E-3,-3.065695167E-3,1.175664148E-2
3.972126500E0,-7.061600117E-3,-2.501438856E-3,-4.995861053E-3,9.004555526E-3
3.982088500E0,3.389845616E-3,1.022151768E-2,-2.608969152E-2,2.822485572E-2
3.992051500E0,-5.821656925E-3,1.351174593E-2,-2.305089355E-2,2.734598070E-2
4.002013500E0,6.919010282E-3,1.515364408E-2,-3.072306175E-2,3.494870749E-2
4.011975500E0,1.777434787E-3,2.697437525E-2,-2.180839676E-2,3.473301547E-2
4.021937500E0,-5.138638183E-3,1.245807767E-2,-2.010744173E-2,2.420575375E-2
4.031899500E0,-7.885760595E-3,1.470165431E-2,-2.874783576E-2,3.323795903E-2
4.041862500E0,-1.031780945E-2,2.622534692E-2,-1.926547922E-2,3.413773136E-2
4.051824500E0,-1.302778377E-2,1.590208769E-2,-1.472211957E-2,2.528518039E-2
4.061786500E0,1.457646908E-3,6.024386287E-3,-1.102967598E-2,1.265194518E-2
4.071748042E0,5.546230227E-3,1.470574737E-2,-3.393212333E-3,1.607897899E-2
4.081710042E0,-1.070037724E-2,-5.202852488E-3,-4.273729920E-3,1.264248846E-2
4.091672042E0,3.115606634E-3,-1.307437420E-3,4.626901746E-3,5.729277186E-3
4.101635042E0,5.772010409E-3,-1.238557220E-2,1.944783926E-2,2.376840244E-2
4.111597042E0,6.681266148E-3,8.267378211E-3,8.891860843E-3,1.385835665E-2
4.121559042E0,1.573229916E-3,6.467020512E-3,1.766736209E-2,1.887943564E-2
4.131521042E0,4.678119700E-3,1.035249531E-2,5.917382240E-4,1.137581282E-2
4.141483042E0,-2.820048155E-3,1.528754532E-2,-6.531705335E-4,1.555918845E-2
4.151446042E0,-5.290578995E-3,1.049575210E-2,-2.173709728E-2,2.471138273E-2
4.161408042E0,1.008137637E-2,1.677917004E-2,-1.253588218E-2,2.324484972E-2
4.171370042E0,-1.036955731E-2,1.887188852E-2,-3.941608071E-3,2.189091522E-2
4.181332042E0,-5.440194625E-3,3.299583793E-3,-1.702888269E-2,1.817871878E-2
4.191294042E0,-8.405093844E-3,1.003499150E-2,-9.978894778E-3,1.645979945E-2
4.201256042E0,-1.940622353E-3,1.542553961E-2,-1.166292943E-2,1.943546270E-2
4.211219042E0,5.300939530E-3,7.791414857E-3,-1.271601297E-2,1.582728945E-2
4.221181042E0,4.740447365E-4,1.954724193E-3,-3.162758946E-3,3.748160780E-3
4.231143042E0,3.944988493E-3,5.098772049E-3,-3.777922578E-3,7.472155621E-3
4.241105042E0,-8.993291762E-4,6.598582864E-3,-9.507609196E-3,1.160795940E-2
4.251067042E0,-1.045596362E-2,1.288433969E-2,1.625811003E-2,2.323057309E-2
4.261030042E0,2.717877198E-3,4.501186609E-3,7.057223842E-4,5.305240941E-3
4.270992042E0,-6.456650840E-4,8.243989348E-3,9.206367955E-3,1.237487191E-2
4.280954042E0,-1.741342391E-2,-5.911535025E-4,-1.017415524E-2,2.017647714E-2
4.290916042E0,2.651173258E-3,1.063608527E-2,-6.058080867E-4,1.097825273E-2
4.300878042E0,-2.317443425E-3,5.842537880E-3,1.113192916E-2,1.278380380E-2
4.310840042E0,-5.182588231E-3,7.938764691E-3,-1.850819170E-2,2.079510437E-2
4.320803042E0,-6.406497261E-3,5.242028832E-3,-7.986638770E-3,1.150254199E-2
4.330765042E0,-7.563163312E-3,7.635878921E-3,-1.650610507E-2,1.969668984E-2
4.340727042E0,-4.614220597E-3,2.035474241E-2,-1.295742989E-2,2.456626873E-2
4.350689042E0,-6.595558757E-3,1.541442990E-2,1.571731567E-3,1.683972638E-2
4.360651042E0,-7.684369697E-3,4.783022404E-3,-1.630788445E-2,1.865137894E-2
4.370613042E0,1.127477938E-2,2.768130362E-2,-1.666463770E-2,3.422112461E-2
4.380576042E0,4.043308510E-3,1.840118766E-2,-7.989123836E-3,2.046406975E-2
4.390538042E0,4.848894943E-4,1.615468740E-2,-1.874273814E-2,2.474872272E-2
4.400500042E0,1.076981749E-2,1.749837756E-2,-1.928941626E-2,2.818268557E-2
4.410462042E0,-6.457148767E-3,-9.143875837E-3,-7.362813950E-3,1.339836799E-2
4.420424042E0,1.113469745E-3,-7.497884631E-3,-4.360853434E-3,8.745006088E-3
4.430387042E0,4.813816217E-3,5.072459579E-3,2.424767241E-3,7.401497748E-3
4.440349042E0,-9.801239921E-3,1.599915147E-2,3.855507821E-5,1.876269272E-2
4.450311042E0,-9.037324036E-3,1.465429187E-2,-1.991378926E-2,2.632452276E-2
4.460273042E0,-1.841002244E-2,4.173157811E-3,-3.248055205E-3,1.915447819E-2
4.470235042E0,-1.584960893E-2,-1.483964860E-2,-6.650038362E-3,2.270789035E-2
4.480197042E0,-8.045270811E-3,-6.756457686E-3,-3.950415440E-3,1.122416523E-2
4.490160042E0,-1.187297695E-2,-7.812464833E-3,-3.356301785E-3,1.460366221E-2
4.500122042E0,-2.011417973E-2,7.755162120E-3,9.472489357E-5,2.155763759E-2
4.510084042E0,-1.705189697E-2,2.257843852E-2,1.068213210E-3,2.831420413E-2
4.520046042E0,3.421580466E-4,1.479871809E-2,-6.951243058E-3,1.635355953E-2
4.530008042E0,-9.402551176E-4,-4.724550247E-4,-2.531142712E-2,2.533329106E-2
4.539970042E0,1.311947085E-2,-9.158493876E-3,-2.911803760E-2,3.322436815E-2
4.549933042E0,1.041561326E-2,1.374212623E-2,-2.144762356E-2,2.751965823E-2
4.559895042E0,4.761118186E-3,2.511905372E-2,-3.418987591E-2,4.269171724E-2
4.569857042E0,1.303676016E-2,2.242641091E-2,-2.973491885E-2,3.945968095E-2
4.579819042E0,1.089014679E-2,2.071083784E-3,1.077985369E-2,1.546253313E-2
4.589781042E0,1.639910102E-2,-2.116107345E-3,1.122628860E-3,1.657313248E-2
4.599744042E0,7.061522459E-3,5.669460297E-3,-1.538227022E-2,1.784998926E-2
4.609706042E0,2.461933605E-3,1.472328901E-3,1.435666859E-2,1.464045090E-2
4.619668042E0,-1.553533479E-2,1.105650008E-2,1.458701234E-2,2.400778520E-2
4.629630042E0,-1.475677346E-2,-1.068871021E-3,5.616250634E-3,1.582552114E-2
4.639592042E0,-1.329314229E-2,7.262241840E-4,5.190500244E-3,1.428902818E-2
4.649554042E0,-2.010729098E-2,-3.319464326E-3,-7.139523402E-3,2.159385997E-2
4.659517042E0,-1.732886769E-2,1.764104962E-3,9.903356060E-3,2.003692050E-2
4.669479042E0,-1.553626669E-2,1.568457127E-2,-1.013856031E-2,2.429345104E-2
4.679441042E0,-1.404971718E-2,1.462973356E-2,-2.274512071E-2,3.047563245E-2
4.689403042E0,-8.625355717E-3,3.548675179E-3,-9.194783159E-3,1.309709487E-2
4.699365042E0,3.362062206E-3,6.089875102E-3,-8.099051490E-3,1.067636062E-2
4.709327042E0,2.466743854E-3,1.776559532E-2,-1.512561399E-2,2.346242530E-2
4.719290042E0,2.236602471E-2,2.315731287E-2,-1.518817920E-2,3.559748570E-2
4.729252042E0,2.308713258E-2,3.995987177E-3,-6.337797046E-3,2.427243860E-2
4.739214042E0,2.690560651E-2,2.809587121E-2,-6.495525688E-4,3.890644624E-2
4.749176042E0,1.092780195E-2,1.177863121E-2,-1.485828660E-2,2.188427950E-2
4.759138042E0,-9.735563812E-3,1.043669522E-2,-4.152034745E-3,1.486422559E-2
4.769101042E0,6.096083201E-3,1.687564909E-2,-1.573138554E-2,2.386265395E-2
4.779063042E0,-1.942778514E-2,1.912331879E-2,-1.458237112E-2,3.091578406E-2
4.789025042E0,-1.271876756E-2,2.357597351E-3,-6.032572389E-3,1.427295495E-2
4.798987042E0,-1.526105470E-2,2.210247517E-3,7.667161524E-5,1.542046896E-2
4.808949042E0,-2.400082398E-2,1.606814861E-3,-9.123410583E-3,2.572660153E-2
4.818911042E0,-1.132104547E-2,-3.332328200E-3,5.104619265E-3,1.285797883E-2
4.828874042E0,-1.517983778E-2,-7.522442937E-3,8.961369619E-3,1.916561422E-2
4.838836042E0,-2.713015330E-2,7.296155691E-3,-1.655383296E-3,2.814283922E-2
4.848798042E0,1.023445465E-3,1.822694063E-2,-2.020724639E-3,1.836714821E-2
4.858760042E0,7.746857246E-3,9.547333717E-3,1.516146474E-3,1.238806193E-2
4.868722042E0,3.214689530E-3,-1.934141994E-2,2.853368148E-3,1.981329008E-2
4.878685042E0,2.036553235E-3,1.568515599E-2,-3.429428525E-3,1.618433340E-2
4.888647042E0,2.678791759E-2,4.157896578E-2,-2.270766199E-2,5.442463447E-2
4.898609042E0,5.134887742E-3,2.945593357E-2,-1.075774390E-2,3.177653456E-2
4.908571042E0,1.057226383E-2,-2.128795803E-2,-2.424730696E-2,3.395411336E-2
4.918533042E0,-8.552228976E-3,-1.683998108E-3,-1.053204138E-2,1.367115085E-2
4.928495042E0,9.277699417E-3,2.720300138E-2,-3.323323488E-2,4.393776156E-2
4.938458042E0,-5.728197405E-3,3.528970063E-2,-2.625926077E-2,4.435903507E-2
4.948420042E0,-8.502354054E-3,1.283990085E-2,-1.062088251E-2,1.870711692E-2
4.958382042E0,-1.368740908E-2,8.055124283E-3,-3.840451241E-3,1.633950000E-2
4.968344042E0,-1.210329329E-2,-7.660437226E-3,-7.257125527E-4,1.434219878E-2
4.978306042E0,1.340095033E-3,1.344508767E-2,-1.957479693E-2,2.378526670E-2
4.988268042E0,-6.048903479E-3,2.167913675E-2,8.698902726E-3,2.412975574E-2
4.998231042E0,-1.755589498E-2,-6.209743023E-4,4.585386515E-3,1.815546273E-2
5.008193042E0,-2.597191581E-3,-5.416275859E-3,9.930253252E-3,1.160566146E-2
5.018155042E0,5.028632870E-3,1.493846655E-2,7.139084861E-4,1.577829511E-2
5.028117042E0,2.358721570E-2,-4.525160193E-3,-2.044259682E-3,2.410420745E-2
5.038079042E0,1.663819275E-2,-1.111672640E-2,-7.385033369E-4,2.002389700E-2
5.048042042E0,2.141012829E-3,1.754164696E-3,-1.009931087E-2,1.047172908E-2
5.058004042E0,-9.219939890E-3,1.312641442E-2,-1.269956768E-2,2.045944931E-2
5.067966917E0,1.653022026E-2,2.644637167E-2,-4.139353596E-2,5.182744037E-2
5.077928917E0,2.515467606E-3,1.312466025E-2,-2.374846637E-2,2.725020989E-2
5.087890917E0,-3.557532798E-3,1.102726400E-2,-2.193235774E-2,2.480493714E-2
5.097852917E0,-1.774342158E-2,1.597225428E-2,-3.341274440E-2,4.106523353E-2
5.107815917E0,-1.853594314E-2,1.777085781E-2,-1.129499339E-2,2.805283321E-2
5.117777917E0,-1.748263576E-2,1.207859337E-2,-7.190321088E-3,2.243291529E-2
5.127739917E0,-5.087790247E-3,7.289723754E-3,7.297325134E-4,8.919539873E-3
5.137701917E0,-4.793227622E-3,1.073548794E-2,-5.906272531E-3,1.315711927E-2
5.147663917E0,-8.350541149E-3,6.542449594E-3,-3.187390342E-3,1.107676132E-2
5.157626917E0,-1.426280708E-2,-2.738251090E-3,5.488781333E-3,1.552586246E-2
5.167588917E0,-4.528001575E-3,6.991515756E-3,1.026836850E-2,1.322208313E-2
5.177550917E0,-9.319995800E-3,1.900345087E-3,-1.363914214E-2,1.662828408E-2
5.187512917E0,-6.363063413E-3,4.745600224E-3,-1.334970497E-2,1.553138500E-2
5.197474917E0,2.887341385E-3,-1.391637325E-3,-4.741360992E-4,3.240092554E-3
5.207436917E0,-3.358403128E-4,7.891402245E-3,-1.173178039E-2,1.414290244E-2
5.217399917E0,3.771901773E-3,1.852047086E-2,-1.222009599E-2,2.250701735E-2
5.227361917E0,6.620327197E-4,1.702533782E-2,-8.454342932E-4,1.705916687E-2
5.237323917E0,2.368218270E-3,2.353504300E-3,5.324474573E-3,6.284701246E-3
5.247285917E0,3.722017715E-3,1.807023525E-2,-7.241228409E-3,1.981974285E-2
5.257247917E0,-8.321391866E-3,1.822226286E-2,-2.478875913E-2,3.187128810E-2
5.267209917E0,-8.276907345E-3,1.193709075E-2,-9.239770174E-3,1.721553612E-2
5.277172917E0,-1.959612099E-3,1.313869357E-3,-8.748055883E-3,9.060618853E-3
5.287134917E0,5.474135885E-4,5.207530260E-3,-6.225530505E-3,8.134817952E-3
5.297096917E0,-5.889671920E-3,-9.011144042E-3,-5.963027067E-3,1.230636600E-2
5.307058917E0,-9.613768137E-3,-5.123915076E-3,2.121545255E-2,2.384899307E-2
5.317020917E0,1.154669775E-3,-7.670377493E-3,9.729145579E-3,1.244283838E-2
5.326983917E0,5.571756978E-5,1.448179901E-2,5.884016566E-3,1.563161085E-2
5.336945917E0,-7.145895953E-3,2.121135950E-2,-1.390241303E-2,2.634886504E-2
5.346907917E0,-8.709601304E-3,-3.797766566E-3,8.640430570E-3,1.284278888E-2
5.356869917E0,1.552549502E-2,-2.155868411E-3,-1.326090038E-2,2.053144523E-2
5.366831917E0,-1.026237967E-2,4.289926708E-2,-1.008820117E-2,4.524859506E-2
5.376793917E0,1.432381455E-2,2.149611890E-2,-1.237563193E-2,2.864281859E-2
5.386756917E0,1.373451571E-2,2.808476150E-2,3.165682554E-3,3.142311723E-2
5.396718917E0,-2.532767141E-3,6.979821324E-3,-2.006998301E-2,2.139946338E-2
5.406680917E0,-1.059116678E-2,2.479336381E-2,-1.020573020E-2,2.882777535E-2
5.416642917E0,-5.493189585E-3,3.512597859E-2,-3.708245695E-2,5.137234778E-2
5.426604917E0,-7.905051839E-3,1.147983849E-2,-2.310403012E-2,2.698282313E-2
5.436567917E0,-1.192219406E-2,-1.890989542E-2,1.664702296E-3,2.241637994E-2
5.446529917E0,-4.559686175E-3,1.821349204E-2,-5.382983275E-3,1.953198759E-2
5.456491917E0,-3.442053486E-2,2.614933312E-2,5.509173498E-3,4.357650554E-2
5.466453917E0,-7.067858465E-3,1.751241088E-3,-3.639891744E-3,8.140656026E-3
5.476415917E0,8.929383522E-4,-6.027894616E-3,2.555233240E-3,6.607728000E-3
5.486377917E0,-2.813036521E-2,9.992306828E-3,-2.356895685E-2,3.803497561E-2
5.496340917E0,-1.954810987E-2,2.807248235E-3,-8.159825988E-3,2.136801353E-2
5.506302917E0,7.304469701E-3,-6.172320843E-3,-1.945427120E-2,2.167767262E-2
5.516264917E0,-2.963454774E-2,-2.009044826E-2,-5.732610226E-3,3.625872793E-2
5.526226917E0,1.028603348E-2,8.345146179E-3,2.520091474E-2,2.846980951E-2
5.536188917E0,9.997391165E-3,3.184861422E-2,-1.659673691E-2,3.727913268E-2
5.546151917E0,1.856175768E-3,6.849428415E-3,2.130023718E-2,2.245128419E-2
5.556113917E0,5.383047229E-3,1.687857270E-2,-4.192453623E-4,1.772115066E-2
5.566075917E0,-2.377774813E-3,-1.380936921E-2,-1.490338326E-2,2.045637611E-2
5.576037917E0,-4.307748838E-3,-2.548275054E-2,-2.032609105E-2,3.287973924E-2
5.585999917E0,1.682143444E-2,5.175312102E-2,-3.505171895E-2,6.472997137E-2
5.595961917E0,-7.885267236E-3,1.104381162E-1,-2.504190702E-2,1.135158670E-1
5.605924917E0,-1.135263871E-2,1.085108739E-1,-4.712621927E-2,1.188460042E-1
5.615886917E0,-2.381920398E-2,4.222566783E-2,-4.232390106E-2,6.435583970E-2
5.625848917E0,-7.928453492E-2,-1.427749729E-1,3.029859044E-2,1.660985700E-1
5.635810917E0,4.778612781E-2,-1.025075376E-1,-1.990333736E-2,1.148366323E-1
5.645772917E0,-3.950557966E-2,2.786899924E-2,7.398949742E-2,8.838448773E-2
5.655734917E0,7.152919464E-2,1.491116005E-1,4.263727527E-2,1.707882676E-1
5.665697917E0,-6.766683005E-2,7.025078773E-2,-1.429019306E-1,1.730171518E-1
5.675659917E0,-9.142026655E-2,-2.153488594E-1,2.830052376E-3,2.339675311E-1
5.685621917E0,1.618024705E-1,-3.602235675E-2,-5.543456454E-2,1.747874154E-1
5.695583917E0,-1.251772475E-1,2.064751250E-1,-1.953382988E-2,2.422455181E-1
5.705545917E0,5.924859824E-2,-6.278389335E-2,-3.679305632E-2,9.383998428E-2
5.715508917E0,1.549262728E-2,-5.306348205E-2,1.805999897E-1,1.888706195E-1
5.725470917E0,2.061612208E-2,-9.795372605E-2,-4.906343836E-2,1.114772529E-1
5.735432917E0,-2.013943240E-2,-2.851453185E-2,2.071252988E-1,2.100465774E-1
5.745394917E0,2.060584834E-2,5.441418886E-3,-3.206094123E-2,3.849823344E-2
5.755356917E0,-2.002130037E-2,-1.837721407E-2,2.784561038E-2,3.890954231E-2
5.765318917E0,-1.029816646E-1,5.717875242E-2,-5.622609481E-3,1.179247502E-1
5.775281917E0,3.774001289E-2,1.272342432E-1,-1.950525892E-1,2.359202699E-1
5.785243917E0,-9.947861594E-2,4.430142939E-2,2.976408184E-2,1.128915951E-1
5.795205917E0,5.578159222E-2,7.395616829E-2,-1.726758796E-1,1.959542300E-1
5.805167917E0,-7.477918674E-2,2.636626482E-2,-5.390957415E-2,9.588195281E-2
5.815129917E0,2.402614059E-2,-7.166172087E-2,-5.346693993E-3,7.577100241E-2
5.825092917E0,1.381158018E-3,2.324502110E-2,4.006979942E-2,4.634465913E-2
5.835054917E0,1.946496977E-2,7.654297650E-2,2.934059724E-3,7.903367008E-2
5.845016917E0,6.226782175E-4,2.161774099E-2,5.662275530E-2,6.061229967E-2
5.854978917E0,-1.213125029E-2,-1.068274605E-1,5.702727299E-2,1.217020272E-1
5.864940917E0,2.413966337E-2,-2.256265104E-2,4.365531206E-3,3.332948293E-2
5.874902917E0,-3.526167054E-2,1.021151894E-1,-7.336625732E-2,1.305890694E-1
5.884865917E0,-4.295953908E-3,1.185885501E-1,-8.445776761E-2,1.456530602E-1
5.894827917E0,-3.545049449E-2,-6.730496049E-2,-4.159533799E-2,8.669986971E-2
5.904789917E0,5.219187689E-2,-2.299300611E-2,1.697797537E-2,5.950564672E-2
5.914751917E0,-6.123784385E-3,-3.390975773E-2,-3.287304640E-3,3.461471907E-2
5.924713917E0,2.908469476E-2,-4.813544869E-2,1.514586363E-1,1.615631747E-1
5.934676917E0,3.906053802E-2,4.062586963E-2,3.821911912E-2,6.809469862E-2
5.944638917E0,-1.360222246E-2,7.010753095E-2,3.792204402E-2,8.085893751E-2
5.954600917E0,-1.235920491E-2,5.285882950E-3,-5.087253034E-2,5.261848390E-2
5.964562917E0,-3.688792739E-2,-2.944657803E-2,-7.172713660E-2,8.586385892E-2
5.974524917E0,-6.086205061E-2,4.254434109E-2,-1.014848596E-1,1.257512898E-1
5.984486917E0,-3.189341851E-2,9.614635170E-2,-1.336305124E-1,1.676854941E-1
5.994449917E0,-2.696690178E-2,1.018549883E-1,-3.660536069E-2,1.115419422E-1
6.004411917E0,-1.486815835E-2,-2.505414963E-2,-7.528326698E-3,3.009066714E-2
6.014373917E0,-2.076643207E-3,-7.144186556E-2,7.525245946E-2,1.037843209E-1
6.024335917E0,4.542739299E-2,-1.156403840E-2,6.604305826E-2,8.098802728E-2
6.034297917E0,-6.885644607E-3,-2.249248445E-2,4.271274090E-2,4.876168776E-2
6.044259917E0,2.417301991E-2,-3.343204021E-2,7.453796625E-2,8.519357146E-2
6.054222917E0,9.858314227E-3,4.110358715E-2,-5.386871673E-2,6.847284044E-2
6.064184917E0,-7.362964698E-3,1.341000438E-2,-5.249571741E-2,5.467944598E-2
6.074146792E0,1.475120033E-3,4.558723211E-2,-3.548499763E-2,5.778889831E-2
6.084108792E0,-7.297238340E-3,2.270064533E-2,-9.480207682E-2,9.775480937E-2
6.094070792E0,6.136081810E-3,-2.233694851E-2,9.922724962E-3,2.520022301E-2
6.104033792E0,2.811648721E-2,4.338984847E-2,-1.638861258E-2,5.423838517E-2
6.113995792E0,5.411410793E-3,2.409520626E-2,1.863036197E-2,3.093465239E-2
6.123957792E0,-9.464718956E-3,-2.274917722E-2,4.676661551E-2,5.286040385E-2
6.133919792E0,-6.863265303E-3,-2.513951898E-2,1.447883885E-2,2.981168562E-2
6.143881792E0,-3.801609740E-2,-4.355240107E-2,4.459254764E-2,7.301048285E-2
6.153843792E0,-2.803913038E-2,-1.122899294E-2,-1.151207127E-2,3.232353476E-2
6.163806792E0,-2.679297452E-2,6.166532099E-2,-2.880111851E-2,7.314355559E-2
6.173768792E0,-4.619247832E-2,5.239222169E-2,-4.497561336E-2,8.307524146E-2
6.183730792E0,-1.015660902E-2,3.151064515E-3,-4.256539106E-2,4.387366443E-2
6.193692792E0,-8.811735716E-3,-4.563985705E-2,-4.716364145E-3,4.672137978E-2
6.203654792E0,3.550310573E-3,-3.710116804E-2,1.475895703E-2,4.008650880E-2
6.213617792E0,2.507409868E-2,1.244638324E-2,3.434544839E-2,4.430838189E-2
6.223579792E0,3.892033732E-2,3.460733056E-2,4.004297532E-2,6.569550866E-2
6.233541792E0,2.495654224E-2,-1.643067598E-2,5.413878500E-2,6.183691580E-2
6.243503792E0,2.260211518E-2,-2.033135355E-2,3.813495576E-2,4.876981032E-2
6.253465792E0,2.751026343E-2,6.153609753E-3,-1.106936395E-2,3.028551345E-2
6.263427792E0,-1.077972578E-2,2.845021248E-2,-3.803496838E-2,4.870601500E-2
6.273390792E0,-2.773450415E-2,4.820853889E-2,-5.224311769E-2,7.630602393E-2
6.283352792E0,-3.569237736E-2,3.474532485E-2,-8.011039931E-2,9.433376637E-2
6.293314792E0,-3.235906701E-2,4.612926900E-2,-5.168003082E-2,7.645812097E-2
6.303276792E0,-2.425832530E-2,5.467731357E-2,-5.528783597E-2,8.145440302E-2
6.313238792E0,-2.295541491E-2,7.985542417E-3,2.848763466E-3,2.447111388E-2
6.323200792E0,-1.712707023E-2,-2.164756179E-2,2.549912274E-2,3.757870044E-2
6.333163792E0,1.829877002E-3,-1.370996654E-2,1.000816740E-2,1.707264031E-2
6.343125792E0,6.334850597E-3,1.558867693E-3,3.484246172E-2,3.544795536E-2
6.353087792E0,-2.868895247E-3,2.461385429E-2,3.648297116E-4,2.478316936E-2
6.363049792E0,-5.157171115E-3,-3.673805594E-3,-1.632546265E-2,1.751039669E-2
6.373011792E0,1.625968147E-2,-1.804216862E-2,-6.632533260E-3,2.517712429E-2
6.382974792E0,5.686782673E-3,6.808497906E-3,-1.206163645E-2,1.497258210E-2
6.392936792E0,2.010720419E-2,1.803924501E-2,-6.899641380E-3,2.788044246E-2
6.402898792E0,9.465034157E-3,5.767108798E-3,3.014473557E-2,3.211777543E-2
6.412860792E0,1.562974905E-2,-3.165507138E-2,4.376988094E-2,5.623286474E-2
6.422822792E0,-6.480606152E-3,-4.887336731E-2,5.060706675E-2,7.065181875E-2
6.432784792E0,-2.933379072E-3,-1.924844921E-2,2.587919176E-2,3.238580052E-2
6.442747792E0,-7.535795602E-3,1.666339517E-2,1.371519249E-2,2.285964695E-2
6.452709792E0,-2.364596194E-2,6.080987334E-2,-3.467566989E-2,7.388757876E-2
6.462671792E0,-3.296745152E-2,4.747997582E-2,-6.357494853E-2,8.592424015E-2
6.472633792E0,-2.960795661E-2,3.251285791E-2,-8.605756581E-2,9.664171800E-2
6.482595792E0,-2.536222480E-2,4.644034088E-2,-6.853112161E-2,8.658211326E-2
6.492558792E0,-8.867220310E-3,3.133172035E-2,-7.097408831E-2,7.808729415E-2
6.502520792E0,6.131349220E-3,2.790466726E-2,-4.210346103E-2,5.088187623E-2
6.512482792E0,2.211791547E-3,-2.193173647E-2,2.148742117E-2,3.078315050E-2
6.522444792E0,2.538521167E-2,-2.027463555E-2,2.171772838E-2,3.907850489E-2
6.532406792E0,1.885756284E-2,-1.757731497E-2,3.841913044E-2,4.626661066E-2
6.542368792E0,1.976261132E-2,-6.957017183E-3,5.084088229E-2,5.498869162E-2
6.552331792E0,1.106129205E-2,-6.957017183E-3,8.926359415E-3,1.582504857E-2
6.562293792E0,-1.180027504E-3,-2.657851875E-2,2.954890430E-2,3.976113516E-2
6.572255792E0,-2.651095600E-3,-1.745978594E-2,-1.482912362E-2,2.306025455E-2
6.582217792E0,-2.372298073E-2,2.025183141E-2,-7.734696865E-3,3.213630386E-2
6.592179792E0,-2.648820668E-2,2.324151278E-2,-2.964655280E-2,4.605117916E-2
6.602141792E0,-4.826300936E-3,3.356886506E-2,5.250214934E-3,3.431802207E-2
6.612104792E0,-3.773218310E-2,2.249540806E-2,-2.671241999E-2,5.141317348E-2
6.622066792E0,1.370167080E-4,2.745852470E-3,9.554350376E-4,2.910555871E-3
6.632028792E0,-3.232647792E-2,1.561732829E-2,8.038130812E-3,3.679012998E-2
6.641990792E0,1.448381355E-2,1.248380542E-3,-5.020719029E-2,5.226950608E-2
6.651952792E0,-4.398896880E-2,-1.717034876E-2,-1.894322455E-2,5.087922965E-2
6.661915792E0,1.475598774E-2,1.680548251E-2,-3.834136248E-2,4.438719965E-2
6.671877792E0,-1.399485842E-2,2.713575840E-2,-1.711304605E-2,3.500088272E-2
6.681839792E0,9.943738393E-3,1.920108676E-2,-5.101622567E-3,2.221680037E-2
6.691801792E0,-1.887326353E-2,-1.432977140E-2,-1.077225231E-2,2.603044072E-2
6.701763792E0,1.386325495E-2,-3.798058927E-2,2.816249292E-2,4.927312662E-2
6.711725792E0,1.666067256E-2,-2.660483122E-4,3.070541047E-2,3.493524043E-2
6.721688792E0,9.594915435E-4,1.214466691E-3,3.448918026E-2,3.452389185E-2
6.731650792E0,1.824880374E-2,7.486190200E-3,3.285016917E-2,3.831703924E-2
6.741612792E0,-5.484948666E-3,1.810122550E-2,7.080356888E-3,2.019580352E-2
6.751574792E0,9.308219142E-4,1.853450418E-2,3.349869847E-3,1.885778095E-2
6.761536792E0,-1.052896245E-2,7.075130939E-4,-4.829273880E-2,4.943225916E-2
6.771499792E0,-1.845635248E-2,2.614407063E-2,-3.774779700E-2,4.948783238E-2
6.781461792E0,-2.174231409E-2,5.413176835E-2,-8.467528403E-2,1.028245121E-1
6.791423792E0,-1.706711800E-2,3.871207595E-2,-4.198772270E-2,5.960604163E-2
6.801385792E0,-1.669632687E-2,5.368270218E-2,-4.562582374E-2,7.240383717E-2
6.811347792E0,-1.183860172E-3,1.731828332E-2,-3.416294217E-2,3.832011325E-2
6.821309792E0,3.215594022E-3,-1.665345490E-2,4.450279288E-3,1.753518151E-2
6.831272792E0,-4.435021710E-3,-1.469873071E-2,-3.355753608E-3,1.571569866E-2
6.841234792E0,-1.937634791E-3,-1.245164573E-2,1.292757254E-2,1.805325571E-2
6.851196792E0,1.731884977E-2,-5.264832973E-3,1.976322345E-3,1.820897783E-2
6.861158792E0,2.277806155E-2,-6.462342739E-3,2.728482585E-2,3.612566516E-2
6.871120792E0,5.464172778E-3,-5.716238022E-3,2.419866543E-2,2.545796477E-2
6.881083792E0,1.749380029E-2,4.742267311E-2,9.980539307E-3,5.152236541E-2
6.891045792E0,1.836640586E-2,4.757411599E-2,5.739553794E-3,5.131826044E-2
6.901007792E0,-1.654998202E-2,-1.768899679E-2,-6.417392269E-3,2.505963759E-2
6.910969792E0,6.338381767E-4,-3.086394310E-2,4.952226207E-4,3.087442275E-2
6.920931792E0,-1.396956007E-2,-1.066005886E-2,-2.113424934E-2,2.748530442E-2
6.930893792E0,-3.911106619E-3,2.076814055E-2,-3.388172764E-2,3.993224117E-2
6.940856792E0,-8.769590082E-3,6.672140837E-2,-2.637503564E-2,7.227928161E-2
6.950818792E0,-1.364912809E-2,4.591526091E-2,-3.507510781E-2,5.936979931E-2
6.960780792E0,-1.937301774E-2,1.792639375E-2,-1.925550241E-2,3.267175817E-2
6.970742792E0,-1.357816208E-2,1.329364479E-2,-2.703288395E-2,3.304336986E-2
6.980704792E0,-1.001675093E-2,1.479111671E-2,-1.850179631E-2,2.571826004E-2
6.990667792E0,-2.757444119E-2,4.204148054E-4,-2.223528005E-2,3.542505094E-2
7.000629792E0,-9.241250250E-4,-9.753155708E-3,-3.175111189E-3,1.029851370E-2
7.010591792E0,1.692455557E-2,5.967083573E-3,3.327767372E-2,3.780807104E-2
7.020553792E0,-4.929225636E-3,-1.361816525E-3,2.897821605E-2,2.942598877E-2
7.030515792E0,2.361951243E-2,-3.684505999E-2,6.188276432E-2,7.579522632E-2
7.040477792E0,4.277192568E-3,-6.230091333E-2,4.814363480E-2,7.885117469E-2
7.050440792E0,9.563198858E-3,-1.088681388E-1,9.947630446E-2,1.477811272E-1
7.060402792E0,2.322809616E-2,-4.752850771E-2,1.013655398E-1,1.143393028E-1
7.070364250E0,3.416449991E-2,9.614576697E-2,-1.259490252E-3,1.020431667E-1
7.080326250E0,-2.782530044E-2,1.663334048E-1,-5.783005916E-2,1.782845047E-1
7.090288250E0,-1.870429727E-2,1.006229800E-1,-1.653784814E-1,1.944861870E-1
7.100251250E0,-4.487066497E-2,5.707584143E-2,-1.644446810E-1,1.797583972E-1
7.110213250E0,-3.033109273E-2,8.658966243E-2,-2.056745680E-1,2.252105077E-1
7.120175250E0,-1.998826360E-2,1.379668075E-1,-1.791340562E-1,2.269876224E-1
7.130137250E0,-1.638489411E-2,8.083366334E-2,-1.576700970E-1,1.779393306E-1
7.140099250E0,1.489653105E-2,3.493535936E-2,-1.049154576E-1,1.115779512E-1
7.150061250E0,-1.134734424E-2,-4.898738801E-2,-4.165483341E-3,5.045669091E-2
7.160024250E0,5.921734761E-2,-2.111020267E-2,1.027285624E-1,1.204387497E-1
7.169986250E0,-1.332357522E-2,-5.071407080E-2,9.607384622E-2,1.094514439E-1
7.179948250E0,2.070758990E-2,-1.129740536E-1,2.070733682E-1,2.367938363E-1
7.189910250E0,-3.186482653E-2,-1.000984848E-1,1.161713111E-1,1.566232657E-1
7.199872250E0,-3.135963624E-2,-8.977405608E-2,1.235878464E-1,1.559383330E-1
7.209834250E0,-4.201773993E-2,-5.072518051E-2,1.073683280E-1,1.259622652E-1
7.219797250E0,-1.429223045E-2,-2.977986932E-2,3.932954192E-2,5.136069836E-2
7.229759250E0,-4.960556662E-2,-8.833213270E-2,1.070081029E-1,1.473567508E-1
7.239721250E0,-1.389625974E-2,-3.416761994E-2,3.053003054E-2,4.788125993E-2
7.249683250E0,9.702988425E-3,1.790300488E-2,3.422258377E-2,3.982274235E-2
7.259645250E0,-1.469953470E-3,3.974060118E-2,-1.064368665E-2,4.116751403E-2
7.269608250E0,2.535308396E-2,1.966769457E-2,-8.427825809E-2,9.017994157E-2
7.279570250E0,-4.317346495E-5,5.137539089E-2,-7.942448437E-2,9.459218451E-2
7.289532250E0,3.858303521E-3,1.036097378E-1,-1.902022507E-1,2.166258536E-1
7.299494250E0,2.627811804E-3,1.670812637E-1,-1.676724172E-1,2.367215528E-1
7.309456250E0,-1.135517859E-2,1.443507975E-1,-1.962659595E-1,2.438983799E-1
7.319419250E0,-5.596447759E-3,6.849662304E-2,-1.274383841E-1,1.447882914E-1
7.329381250E0,-5.760864154E-3,4.917508364E-3,-4.380386788E-2,4.445388944E-2
7.339343250E0,2.264717985E-2,-3.037277699E-2,3.270932436E-2,5.005297431E-2
7.349305250E0,1.294111250E-2,-3.110075533E-2,1.345350766E-1,1.386881978E-1
7.359267250E0,9.210438165E-3,-6.910590291E-2,1.403665779E-1,1.567266224E-1
7.369229250E0,1.879853794E-2,-1.203052926E-1,1.789465068E-1,2.164453759E-1
7.379192250E0,-1.287607136E-2,-1.319985545E-1,1.547547483E-1,2.038098225E-1
7.389154250E0,-2.451488560E-2,-9.026873052E-2,9.674576439E-2,1.345703023E-1
7.399116250E0,-3.171273041E-2,9.532130957E-3,3.932544887E-2,5.141059929E-2
7.409078250E0,-4.483398283E-2,3.539962828E-2,-3.434362113E-2,6.665361214E-2
7.419040250E0,-4.369219977E-2,5.513281167E-2,-5.673673946E-2,9.037528892E-2
7.429003250E0,-1.952304450E-2,4.764369786E-2,-1.029045635E-1,1.150670257E-1
7.438965250E0,-5.814503222E-3,3.955758333E-2,-6.271610219E-2,7.437688028E-2
7.448927250E0,1.421226521E-2,6.306163609E-2,-8.971858062E-2,1.105811111E-1
7.458889250E0,1.747515315E-2,4.136495769E-2,-5.215248585E-2,6.882094509E-2
7.468851250E0,-8.046271233E-3,-8.841048539E-2,6.766361408E-3,8.903336483E-2
7.478813250E0,8.088753995E-2,-1.388889134E-2,1.267098210E-1,1.509671294E-1
7.488776250E0,9.699420710E-2,4.791699672E-1,-1.658655544E-1,5.162587683E-1
7.498738250E0,-2.625604663E-1,-9.272514582E-2,-3.147356649E-1,4.202314719E-1
7.508700250E0,1.164646404E-1,-1.856894428E-1,1.901596391E-1,2.901814432E-1
7.518662250E0,-5.411432720E-2,7.716161191E-2,-2.370226606E-1,2.550725708E-1
7.528624250E0,-4.642887485E-2,1.674525619E-2,-8.022547983E-2,9.419220582E-2
7.538586250E0,5.240324460E-2,1.520539194E-1,2.971620045E-1,3.378931064E-1
7.548549250E0,2.327328874E-4,-1.060948044E-1,-1.298209783E-1,1.676593215E-1
7.558511250E0,-7.074581393E-2,-2.315380454E-1,4.516757379E-1,5.124703005E-1
7.568473250E0,1.012179433E-1,-8.127980590E-2,-2.493603587E-2,1.321865530E-1
7.578435250E0,-9.892539625E-2,-3.375778860E-1,1.524363273E-1,3.833821814E-1
7.588397250E0,-2.622005337E-1,-4.490784413E-1,4.271817881E-1,6.729820550E-1
7.598360250E0,6.054192469E-1,7.891004634E-1,-4.030959739E-1,1.073172106E0
7.608322250E0,-3.620095995E-1,6.084448886E-1,-1.587928355E-2,7.081724961E-1
7.618284250E0,-1.678170261E-1,-4.601600844E-1,-6.880192079E-2,4.946145588E-1
7.628246250E0,2.334583258E-1,-1.761590660E-2,-2.945008636E-2,2.359669843E-1
7.638208250E0,-2.690878959E-1,-3.032377732E-1,-4.621610381E-1,6.147798532E-1
7.648170250E0,1.006896748E-1,6.257894844E-1,-1.953151292E-1,6.632487384E-1
7.658133250E0,2.399346471E-1,2.388546664E-1,2.023639476E-1,3.944253463E-1
7.668095250E0,-1.634147854E-1,-9.027340829E-2,-1.534402943E-1,2.416559625E-1
7.678057250E0,7.266723183E-2,-2.277969968E-1,7.018997669E-2,2.491959694E-1
7.688019250E0,4.236102174E-2,-3.022542715E-2,9.512601256E-2,1.084296587E-1
7.697981250E0,1.407310604E-2,7.727504790E-2,-1.741044275E-1,1.910021911E-1
7.707944250E0,-1.708959872E-1,4.828045964E-3,1.089727309E-1,2.027407323E-1
7.717906250E0,8.822412366E-2,4.883009791E-2,-1.923390426E-2,1.026538725E-1
7.727868250E0,-2.375891462E-1,-5.635663390E-2,-9.266608894E-2,2.611736522E-1
7.737830250E0,9.446542338E-2,-3.777301311E-4,2.521412945E-1,2.692565529E-1
7.747792250E0,-6.499468447E-2,-2.371221364E-2,-1.029775807E-1,1.240603087E-1
7.757754250E0,2.374731063E-2,-2.190635955E-1,3.035810047E-1,3.751189413E-1
7.767717250E0,2.838545913E-2,-1.010018796E-1,1.321371335E-1,1.687226600E-1
7.777679250E0,2.700658975E-2,1.843276262E-2,-4.620981440E-3,3.302235754E-2
7.787641250E0,4.542587180E-2,8.649142921E-2,1.885862265E-1,2.123888932E-1
7.797603250E0,2.567603756E-3,1.625163424E-1,-2.747922385E-1,3.192631023E-1
7.807565250E0,2.939223547E-2,-1.099370098E-1,-6.352466248E-2,1.303281718E-1
7.817528250E0,-3.685137316E-2,1.091692704E-1,-1.066035122E-1,1.569721699E-1
7.827490250E0,-9.564537322E-4,1.761005938E-1,-4.111943310E-1,4.473176856E-1
7.837452250E0,-8.360746368E-3,2.737561119E-1,-4.844995581E-2,2.781361341E-1
7.847414250E0,-2.291405499E-2,6.706347048E-2,-3.986982465E-2,8.131522555E-2
7.857376250E0,3.132911195E-2,-1.439450008E-1,-6.205233358E-2,1.598504570E-1
7.867338250E0,-3.996073058E-2,-1.352560383E-1,2.620330292E-1,2.975774929E-1
7.877301250E0,2.584197971E-2,-5.397330880E-2,-4.452581629E-3,6.000626185E-2
7.887263250E0,-3.547777997E-2,5.589470387E-2,2.104248826E-1,2.205935675E-1
7.897225250E0,-6.781299217E-3,-6.027134478E-2,2.721586525E-2,6.647799893E-2
7.907187250E0,-4.572266368E-2,-1.055077440E-1,6.763766706E-2,1.334065216E-1
7.917149250E0,-2.548302006E-2,-6.242487431E-2,9.974180460E-3,6.815961795E-2
7.927112250E0,-8.298491794E-3,7.078756213E-2,-7.289014779E-2,1.019446789E-1
7.937074250E0,-2.237520210E-2,1.240603745E-1,-2.062137544E-2,1.277374938E-1
7.947036250E0,2.601666071E-2,6.539350569E-2,-5.978602588E-2,9.234471350E-2
7.956998250E0,1.488454426E-2,-3.504938006E-2,-3.166194186E-3,3.821038453E-2
7.966960250E0,4.415418006E-2,-3.295198381E-2,-2.836133480E-2,6.196604042E-2
7.976922250E0,2.202412248E-2,3.425415874E-2,-7.776796818E-3,4.145947335E-2
7.986885250E0,3.721328840E-2,7.885613501E-2,-3.656198166E-2,9.455103048E-2
7.996847250E0,2.489545711E-2,5.610520363E-2,-6.879600048E-2,9.219797905E-2
8.006809250E0,-8.641928919E-3,3.709298193E-2,-8.146523573E-2,8.992862101E-2
8.016771250E0,-2.274795752E-2,5.222674549E-2,-1.183072990E-1,1.313077283E-1
8.026733250E0,-2.904979876E-2,9.490147948E-2,-7.830185551E-2,1.264174125E-1
8.036696250E0,-5.249584988E-2,4.193856955E-2,-6.162559647E-2,9.117221074E-2
8.046658250E0,-3.262669589E-2,-3.033710897E-2,2.260182738E-2,4.995682202E-2
8.056620250E0,-3.080196718E-2,-7.911867499E-2,9.307130098E-2,1.259793355E-1
8.066582875E0,3.643208211E-3,-8.974131167E-2,1.288890052E-1,1.570959950E-1
8.076544875E0,-1.226248831E-2,-6.086015940E-2,1.343023209E-1,1.479575649E-1
8.086506875E0,5.982464491E-3,-7.629797816E-2,1.011760535E-1,1.268612043E-1
8.096469875E0,-4.861667454E-3,-3.935643911E-2,6.184534214E-2,7.346707736E-2
8.106431875E0,-3.440405759E-3,-1.109333754E-2,-4.789454341E-3,1.256333564E-2
8.116393875E0,1.549005085E-3,6.237692714E-2,-5.035965644E-2,8.018338639E-2
8.126355875E0,-6.457774602E-3,1.113116902E-1,-1.161333042E-1,1.609936011E-1
8.136317875E0,-1.262611203E-2,9.365309894E-2,-1.003510114E-1,1.378428349E-1
8.146280875E0,6.627165698E-3,3.768355072E-2,-1.169630241E-1,1.230622539E-1
8.156242875E0,1.563687991E-2,4.054868639E-2,-6.857208867E-2,8.118398441E-2
8.166204875E0,2.956717685E-2,5.044626832E-2,-2.866772890E-2,6.512205935E-2
8.176166875E0,2.642567801E-2,3.968797624E-2,-8.106616326E-3,4.836495782E-2
8.186128875E0,1.187158367E-2,-2.955182791E-3,1.294164240E-2,1.780880996E-2
8.196090875E0,-3.391444464E-3,-2.809294760E-2,1.199965596E-2,3.073609187E-2
8.206053875E0,-2.965932531E-2,-1.656574667E-2,6.275158748E-3,3.454673874E-2
8.216015875E0,-2.831148729E-2,2.205569744E-2,-1.337557890E-2,3.830013333E-2
8.225977875E0,-4.534795765E-2,1.009229422E-2,-1.554716170E-2,4.898985510E-2
8.235939875E0,-2.391196457E-2,-8.311232328E-3,2.768948972E-2,3.751754888E-2
8.245901875E0,-2.947033691E-2,-3.046106994E-2,1.788601141E-2,4.600311885E-2
8.255864875E0,7.226500735E-3,-5.141749084E-2,5.963684879E-2,7.907296890E-2
8.265826875E0,5.201217094E-3,-4.767995059E-2,7.711538237E-2,9.081416489E-2
8.275788875E0,2.483932384E-2,-4.020428538E-2,8.146399319E-2,9.417939668E-2
8.285750875E0,2.739050971E-2,-2.869871914E-2,5.836807609E-2,7.057399527E-2
8.295712875E0,2.675778616E-2,2.717785835E-3,6.799142361E-3,2.774155397E-2
8.305674875E0,2.140498000E-2,5.254775763E-2,-4.854248799E-2,7.467136761E-2
8.315637875E0,7.267426676E-3,7.244817138E-2,-1.166315601E-1,1.374935411E-1
8.325599875E0,9.316085475E-3,8.247673094E-2,-1.322015259E-1,1.560975466E-1
8.335561875E0,-5.502864900E-3,8.937410653E-2,-1.131155928E-1,1.442676324E-1
8.345523875E0,-1.637658924E-3,4.852779686E-2,-1.049745510E-1,1.156602151E-1
8.355485875E0,8.931576228E-3,4.765188396E-2,-3.927516282E-2,6.239401825E-2
8.365448875E0,-2.688499507E-3,7.133603096E-5,-4.343311787E-3,5.108568851E-3
8.375410875E0,-3.784948373E-3,-3.748649955E-2,3.653219741E-2,5.248013843E-2
8.385372875E0,-1.072999247E-2,-5.094737470E-2,8.062667191E-2,9.597618429E-2
8.395334875E0,-3.259936930E-3,-3.687663496E-2,5.623380583E-2,6.732573291E-2
8.405296875E0,-2.543644333E-2,-1.653066337E-2,4.989538752E-2,5.839370836E-2
8.415258875E0,-1.246975840E-2,-3.365657330E-3,8.746265173E-3,1.559870758E-2
8.425221875E0,-2.727717879E-2,-9.509911537E-3,1.384445250E-2,3.203360369E-2
8.435183875E0,-7.101215003E-3,-1.865086377E-2,-1.157343049E-2,2.307002963E-2
8.445145875E0,-1.596343777E-2,-2.941149473E-3,-2.399295308E-2,2.896797375E-2
8.455107875E0,5.833205176E-3,1.650610507E-2,1.232593060E-3,1.754984538E-2
8.465069875E0,2.200914812E-2,2.548275054E-2,7.280514389E-4,3.367941856E-2
8.475032875E0,2.177724664E-2,1.050452292E-2,-1.120728515E-2,2.664951619E-2
8.484994875E0,2.599528183E-2,4.059721828E-3,-2.302816249E-2,3.496472918E-2
8.494956875E0,8.651362122E-3,3.773208261E-2,-3.215098836E-2,5.032138886E-2
8.504918875E0,5.953470524E-3,4.191576540E-2,-6.029064059E-2,7.367045910E-2
8.514880875E0,3.116520261E-3,6.721082032E-2,-9.348469913E-2,1.151798421E-1
8.524842875E0,5.465319380E-4,7.560274422E-2,-8.617794536E-2,1.146416674E-1
8.534805875E0,-8.096411107E-3,3.969440818E-2,-8.204754531E-2,9.150408518E-2
8.544767875E0,-2.582281181E-2,2.489685953E-2,-5.476027094E-2,6.546264963E-2
8.554729875E0,-8.762016110E-3,1.116233468E-3,-6.807949729E-3,1.115199906E-2
8.564691875E0,-2.543822033E-3,-1.324101985E-2,2.571481191E-2,2.903527490E-2
8.574653875E0,-7.773009832E-3,-4.542058647E-2,7.025831603E-2,8.402190386E-2
8.584616875E0,-4.743539994E-3,-5.874463677E-2,7.507934533E-2,9.544810955E-2
8.594578875E0,8.855306609E-3,-5.052228212E-2,8.397120617E-2,9.839756558E-2
8.604540875E0,9.954327336E-3,-3.601826370E-2,5.016560197E-2,6.255390934E-2
8.614502875E0,-4.334828756E-3,-1.163829803E-2,2.017282091E-2,2.368931035E-2
8.624464875E0,-1.237739523E-2,9.145045280E-4,-2.909976505E-2,3.163593775E-2
8.634426875E0,-9.283756767E-3,2.455304325E-2,-4.651043437E-2,5.340655932E-2
8.644389875E0,1.848524138E-2,3.487630248E-2,-5.255364139E-2,6.572629494E-2
8.654351875E0,-6.913418882E-5,5.104151487E-2,-5.672617793E-2,7.630924114E-2
8.664313875E0,1.673124114E-2,3.547681153E-2,-5.395518243E-2,6.670607392E-2
8.674275875E0,2.257477487E-3,1.063900888E-2,-2.542022187E-2,2.764909392E-2
8.684237875E0,8.214296456E-3,2.306668103E-2,-1.322406292E-2,2.782844372E-2
8.694200875E0,-4.097367846E-3,2.082895160E-2,-2.967520416E-2,3.648631784E-2
8.704162875E0,5.214327648E-3,1.843919456E-2,-3.473713875E-2,3.967192858E-2
8.714124875E0,-1.141841075E-2,3.172114491E-3,-9.261989594E-4,1.188697854E-2
8.724086875E0,-1.975811628E-2,3.909506857E-2,-2.676555656E-2,5.133422410E-2
8.734048875E0,-8.881893167E-3,-4.012359381E-3,-2.922664963E-2,3.080883157E-2
8.744010875E0,-1.466153237E-2,-2.271877170E-2,1.228207648E-2,2.969768545E-2
8.753973875E0,-1.819302678E-2,-3.304261565E-2,1.147347964E-2,3.942640496E-2
8.763935875E0,-3.843269781E-3,-3.005001068E-2,6.147934299E-2,6.853818993E-2
8.773897875E0,1.285645121E-2,-3.425065041E-2,4.865117311E-2,6.087143859E-2
8.783859875E0,6.008621645E-3,-5.827335119E-3,4.121523242E-2,4.205658988E-2
8.793821875E0,-1.292934955E-2,-1.407717168E-2,1.941443704E-2,2.724436103E-2
8.803784875E0,2.934642619E-2,4.428447247E-2,-1.617866099E-2,5.553446050E-2
8.813746875E0,-2.153453694E-2,5.055795014E-2,-6.366389930E-2,8.410074124E-2
8.823708875E0,2.420884324E-4,9.687082171E-3,-8.854149956E-2,8.907017072E-2
8.833670875E0,3.353889808E-3,5.024921715E-2,-8.501738269E-2,9.881390469E-2
8.843632875E0,-1.729938950E-2,8.199901342E-2,-1.053943811E-1,1.346517086E-1
8.853594875E0,-1.478909760E-2,5.492406607E-2,-5.173031688E-2,7.688560415E-2
8.863557875E0,1.476644421E-2,3.502949953E-2,-3.496342599E-2,5.164837722E-2
8.873519875E0,-1.185041035E-2,-2.707085431E-2,-1.815319262E-2,3.468143280E-2
8.883481875E0,1.112495361E-2,9.014652371E-3,5.122336328E-2,5.318704256E-2
8.893443875E0,-5.628760935E-2,-3.004065514E-2,-1.714641172E-2,6.606614384E-2
8.903405875E0,1.109504145E-2,-6.103206754E-2,1.131997196E-1,1.290821046E-1
8.913368875E0,-9.725417979E-3,3.475818872E-2,1.191308063E-2,3.800837971E-2
8.923330875E0,-3.670350712E-2,-3.709181249E-2,3.676692657E-3,5.231126129E-2
8.933292875E0,1.363959439E-2,-3.920733511E-2,9.030147493E-2,9.938616622E-2
8.943254875E0,1.306725704E-2,-1.451746702E-2,-4.498964667E-2,4.904669574E-2
8.953216875E0,1.394274968E-2,-2.201359749E-2,7.394447386E-2,7.840142829E-2
8.963178875E0,1.098126286E-2,4.038905740E-2,-2.645806611E-2,4.951659675E-2
8.973141875E0,2.567714305E-2,3.095691383E-2,-2.778479934E-2,4.888395711E-2
8.983103875E0,-3.138938852E-2,-3.042423248E-2,-5.437910557E-5,4.371419210E-2
8.993065875E0,4.193308778E-2,-7.081562877E-3,-4.657252450E-2,6.306768128E-2
9.003027875E0,-1.917147609E-2,8.077636063E-2,-3.097964488E-2,8.861210035E-2
9.012989875E0,-4.036031011E-2,5.444167078E-2,-9.494759940E-2,1.166528901E-1
9.022952875E0,3.698679102E-3,4.710283041E-2,-2.378822744E-2,5.289836126E-2
9.032914875E0,-4.082103416E-2,4.232682467E-2,-9.952370346E-2,1.155979432E-1
9.042876875E0,-3.206928265E-3,7.161085010E-3,-2.160129569E-2,2.298219970E-2
9.052838875E0,-1.142875758E-2,3.321686268E-2,-1.550908171E-2,3.839932397E-2
9.062800875E0,9.806452165E-3,-5.952465534E-4,-1.361356057E-2,1.678838450E-2
9.072763750E0,-2.666387896E-2,-2.394844115E-2,7.518576466E-2,8.329099280E-2
9.082725750E0,1.795112564E-2,-3.277364373E-2,6.949342713E-3,3.800852535E-2
9.092687750E0,1.603777050E-2,-3.307594478E-2,7.631435037E-2,8.470601087E-2
9.102649750E0,2.520812326E-3,-2.679428101E-2,3.660890557E-2,4.543676877E-2
9.112611750E0,2.065277682E-2,-8.544536233E-3,2.771404803E-2,3.560357774E-2
9.122573750E0,-4.522981192E-3,-4.962531924E-3,4.135150909E-3,7.885655014E-3
9.132536750E0,-3.673819299E-3,5.513339639E-3,-3.367765982E-2,3.432315010E-2
9.142498750E0,-1.551873875E-2,2.286612153E-2,-2.372569878E-2,3.642251431E-2
9.152460750E0,2.176361075E-3,4.217713594E-2,-7.645819187E-2,8.734702312E-2
9.162422750E0,-1.034603597E-2,3.543938935E-2,-3.240936220E-2,4.912593547E-2
9.172384750E0,-8.758389009E-3,3.110660255E-2,-5.890594684E-2,6.718809919E-2
9.182346750E0,-1.658855081E-3,3.785078108E-2,-3.678366423E-2,5.280597866E-2
9.192309750E0,2.624257794E-4,4.788928092E-2,-2.439345080E-2,5.374469775E-2
9.202271750E0,-7.669632887E-3,1.107988894E-2,-2.736146092E-2,3.049978281E-2
9.212233750E0,-5.674019298E-3,-1.016596913E-2,-3.617672324E-3,1.219134843E-2
9.222195750E0,-9.217623845E-3,-5.966498852E-3,-2.952902377E-2,3.150439561E-2
9.232157750E0,-1.125232698E-3,4.667247534E-3,-5.997562185E-3,7.682454056E-3
9.242120750E0,-5.234719813E-3,1.827254891E-3,1.456183277E-2,1.558165991E-2
9.252082750E0,-7.631863528E-3,-1.149094820E-2,2.301222883E-2,2.683001877E-2
9.262044750E0,1.704248660E-3,-3.543938935E-2,2.642473698E-2,4.423936601E-2
9.272006750E0,1.694998639E-2,-2.032375216E-2,3.472661376E-2,4.366113425E-2
9.281968750E0,1.149100302E-2,-1.584010720E-2,4.938273288E-2,5.311879567E-2
9.291930750E0,1.329861492E-2,-6.413810849E-3,3.553762257E-2,3.848262915E-2
9.301893750E0,8.913623448E-3,-3.202227652E-2,3.786945563E-2,5.038823817E-2
9.311855750E0,2.823860266E-2,6.732484102E-3,-2.037118770E-2,3.546449366E-2
9.321817750E0,-1.936622492E-2,5.881480336E-2,-3.349643268E-2,7.040058781E-2
9.331779750E0,-2.171217352E-3,3.231522202E-2,-3.174979627E-2,4.535457334E-2
9.341741750E0,-1.548741046E-2,4.637952983E-2,-4.944178976E-2,6.953712135E-2
9.351704750E0,-2.411796015E-2,4.742968976E-2,-9.514066715E-2,1.090091648E-1
9.361666750E0,-4.112345398E-2,1.720192373E-2,-7.436430395E-2,8.670117847E-2
9.371628750E0,-6.536401380E-3,6.733653545E-3,-3.879101336E-2,3.991001567E-2
9.381590750E0,2.658241537E-2,8.382509887E-2,-7.231288143E-3,8.823584043E-2
9.391552750E0,-4.957350286E-2,5.390255749E-2,-8.221481223E-2,1.101012863E-1
9.401515750E0,2.112505825E-2,-1.927885473E-2,8.303630948E-3,2.978074231E-2
9.411477750E0,-1.352319368E-2,-4.128134251E-4,7.444674969E-3,1.544248580E-2
9.421439750E0,-1.232764365E-2,-1.970804036E-2,-1.844098527E-2,2.967233712E-2
9.431401750E0,-7.317109737E-3,5.886976719E-3,7.183889151E-2,7.245014094E-2
9.441363750E0,-1.726415546E-2,-2.419928670E-2,3.400155902E-3,2.992018718E-2
9.451325750E0,-2.649519593E-3,-3.243918300E-2,6.759962361E-2,7.502685959E-2
9.461288750E0,-4.488001138E-2,4.374886751E-3,3.726138175E-2,5.849585990E-2
9.471250750E0,1.291591465E-2,-1.359536111E-2,-5.569509454E-3,1.956205845E-2
9.481212750E0,-3.397534248E-2,6.447139978E-3,5.282900870E-2,6.314106168E-2
9.491174750E0,4.217592082E-3,9.028100967E-4,-5.843071438E-2,5.858968794E-2
9.501136750E0,-1.412149632E-2,2.978279293E-2,1.435316026E-2,3.595058584E-2
9.511099750E0,-1.553178535E-2,4.011248410E-2,-7.232252933E-2,8.414746571E-2
9.521061750E0,4.659975059E-3,3.935819328E-2,-3.194275439E-2,5.090306772E-2
9.531023750E0,-1.410733053E-2,4.684262931E-2,-4.016163725E-2,6.329459537E-2
9.540985750E0,2.472216482E-2,3.577268064E-2,-6.531171776E-2,7.846330729E-2
9.550947750E0,2.768939836E-3,3.667432129E-2,-1.762577377E-2,4.078407497E-2
9.560909750E0,2.287650034E-2,3.534407973E-2,-5.435213529E-2,6.875094799E-2
9.570872750E0,1.030515114E-2,-1.479228616E-2,2.899232246E-2,3.414033731E-2
9.580834750E0,1.017913907E-2,-2.916123390E-2,7.989050746E-3,3.190325010E-2
9.590796750E0,9.755960545E-3,-8.954426050E-3,3.781273764E-2,4.006449350E-2
9.600758750E0,1.734409329E-2,4.777759910E-2,4.156083941E-2,6.565683453E-2
9.610720750E0,1.479074670E-2,-4.605851769E-3,-3.504236341E-3,1.588268651E-2
9.620683750E0,-1.612142223E-2,-7.002566993E-2,5.410600405E-2,8.994973251E-2
9.630645750E0,-1.439614643E-2,-5.416977525E-2,-1.317085326E-2,5.757677447E-2
9.640607750E0,-1.497176827E-2,2.245330811E-3,1.696518458E-2,2.273791643E-2
9.650569750E0,-2.249248445E-2,8.292696655E-2,-3.766016185E-2,9.381407905E-2
9.660531750E0,-1.043467153E-2,6.407963634E-2,-5.515729688E-2,8.519043117E-2
9.670493750E0,-1.591041997E-2,1.483146250E-2,-1.054019094E-2,2.417042343E-2
9.680456750E0,-1.403843388E-3,-1.869530261E-2,-5.297460437E-2,5.619425081E-2
9.690418750E0,5.507716262E-3,1.572842538E-2,-1.275986709E-2,2.098886637E-2
9.700380750E0,1.120329717E-2,4.357169688E-2,-5.514224030E-2,7.116651812E-2
9.710342750E0,1.887751190E-2,2.860750258E-2,-7.952213287E-3,3.518504448E-2
9.720304750E0,-5.501348278E-3,3.444887102E-2,2.140080929E-4,3.488603369E-2
9.730267750E0,2.903028368E-2,-2.368707061E-3,-2.970919110E-2,4.160533835E-2
9.740229750E0,8.507008986E-3,-2.392739117E-2,2.168732285E-2,3.339504788E-2
9.750191750E0,4.747368093E-3,-1.883563578E-2,-1.278669119E-2,2.325549721E-2
9.760153750E0,4.537014510E-3,1.604183614E-2,2.898347855E-2,3.343601406E-2
9.770115750E0,1.046178343E-2,3.535460472E-2,-1.087406695E-2,3.844011342E-2
9.780077750E0,-3.300570510E-4,-4.760218263E-3,-1.075712264E-2,1.176793537E-2
9.790040750E0,-1.544280260E-2,-2.542193949E-2,2.422501445E-2,3.836152349E-2
9.800002750E0,-1.396536196E-2,-1.659439802E-2,-1.835031688E-2,2.841020081E-2
9.809964750E0,-6.322580581E-3,2.201652110E-2,-6.509632096E-3,2.381338986E-2
9.819926750E0,-1.033160522E-2,1.887130380E-2,-3.623694956E-2,4.214243333E-2
9.829888750E0,-3.122462951E-2,9.288886786E-3,-9.539184161E-3,3.394491037E-2
9.839851750E0,7.645462872E-4,2.851687074E-3,-2.987755436E-2,3.002307288E-2
9.849813750E0,-2.736003567E-3,1.677390754E-2,-3.393731274E-2,3.795511672E-2
9.859775750E0,-2.912388481E-3,1.811876714E-2,-1.548170943E-2,2.400947847E-2
9.869737750E0,3.145975610E-3,2.934776008E-2,-3.169366300E-2,4.330908056E-2
9.879699750E0,-3.137437762E-3,2.126632333E-2,-1.976066530E-2,2.919903965E-2
9.889661750E0,5.195694217E-3,1.722648203E-2,3.860879950E-3,1.840253558E-2
9.899624750E0,8.321547182E-3,8.100147843E-3,-3.273856044E-3,1.206559887E-2
9.909586750E0,9.689256605E-3,2.307194352E-2,2.820112109E-3,2.518232125E-2
9.919548750E0,5.162387928E-3,4.062645435E-3,-9.780052900E-3,1.178154369E-2
9.929510750E0,1.575532714E-2,-4.322261810E-3,5.519771576E-3,1.724471394E-2
9.939472750E0,-3.158204514E-3,9.451439381E-3,-5.152018256E-3,1.121816626E-2
9.949435750E0,-8.167600958E-4,-7.911867499E-3,2.444867045E-4,7.957670396E-3
9.959397750E0,-4.268307541E-3,-6.413226128E-3,3.508987203E-3,8.465276713E-3
9.969359750E0,-1.116003234E-2,-2.754038572E-4,-9.087779112E-3,1.439478719E-2
9.979321750E0,-8.639133219E-3,4.359099269E-3,-4.632675871E-3,1.072837616E-2
9.989283750E0,-9.391395785E-3,1.515013576E-3,-1.345623393E-2,1.647919332E-2
9.999245750E0,-2.112383856E-2,1.273932874E-2,6.638855562E-3,2.554567391E-2
1.000920875E1,-1.707015581E-2,1.393917739E-2,-1.871927619E-2,2.891543164E-2
1.001917075E1,7.737967651E-4,1.737909436E-2,-1.550031088E-2,2.330002832E-2
1.002913275E1,-9.214604306E-3,1.333691418E-2,-1.967463814E-2,2.549261850E-2
1.003909475E1,-5.115400068E-4,2.246792614E-2,-1.443911433E-2,2.671249522E-2
1.004905675E1,1.066035122E-2,2.575873911E-2,-1.634764552E-2,3.231719732E-2
1.005901975E1,-4.718693895E-3,5.550177097E-3,-1.035311658E-2,1.265928753E-2
1.006898192E1,1.799297892E-3,1.378247201E-2,-1.319248796E-2,1.916339600E-2
1.007894392E1,7.999913776E-3,1.288550913E-2,-9.484220333E-3,1.788813577E-2
1.008890592E1,2.133268009E-2,3.006053567E-3,2.196214199E-3,2.165509073E-2
1.009886792E1,1.708007324E-2,7.345857024E-3,9.685839638E-3,2.096439855E-2
1.010883092E1,6.157515510E-3,3.153403401E-3,-1.512163058E-3,7.081354911E-3
1.011879292E1,1.271303454E-3,-8.226447701E-3,-1.299836040E-3,8.424976438E-3
1.012875492E1,6.734210858E-4,-5.835521221E-3,5.360142589E-3,7.952228144E-3
1.013871692E1,-4.542802339E-3,8.532257080E-3,4.054422788E-3,1.048211849E-2
1.014867892E1,-2.413609566E-2,6.882757545E-3,5.015156865E-3,2.559443813E-2
1.015864092E1,-1.730902371E-2,5.940771103E-4,-4.070758447E-3,1.779118612E-2
1.016860392E1,-1.288564618E-2,2.573885858E-2,-2.662705064E-2,3.921133183E-2
1.017856592E1,-1.298399817E-2,2.858294427E-2,-3.005344592E-2,4.346007965E-2
1.018852792E1,-1.229864968E-2,2.394376338E-2,-2.633066989E-2,3.765454509E-2
1.019848992E1,5.395577629E-3,1.780886471E-2,-1.875435948E-2,2.641957456E-2
1.020845192E1,-2.070590425E-3,1.511739135E-2,-2.254503630E-2,2.722317997E-2
1.021841492E1,8.906456041E-3,2.156102300E-2,-2.046116173E-2,3.103001468E-2
1.022837692E1,1.167945238E-2,1.677917004E-2,6.170639768E-3,2.135478752E-2
1.023833892E1,-2.464322741E-3,4.056798220E-3,-8.235218525E-3,9.505226064E-3
1.024830092E1,3.145537069E-3,5.256062150E-3,-9.034532905E-3,1.091528184E-2
1.025826292E1,-2.708092248E-3,5.258985758E-3,-5.487100258E-3,8.068392905E-3
1.026822492E1,-3.334123478E-3,7.806617618E-3,-7.519884780E-4,8.522038762E-3
1.027818792E1,8.114770451E-3,8.405372500E-3,-1.033732910E-2,1.560000510E-2
1.028814992E1,-1.438680916E-2,6.462342739E-3,1.290553585E-3,1.582427502E-2
1.029811192E1,1.445121076E-3,-7.221311331E-4,-1.071202599E-2,1.083315970E-2
1.030807392E1,-1.443322144E-2,3.467983603E-3,3.690835610E-3,1.529598179E-2
1.031803592E1,-1.008921072E-2,5.408674479E-3,-1.163245082E-2,1.632053445E-2
1.032799892E1,-1.002844993E-2,9.291810393E-3,-9.509399906E-3,1.665341511E-2
1.033796092E1,-7.158750691E-3,1.437596440E-2,-2.033201136E-2,2.590958799E-2
1.034792292E1,-1.610586315E-2,1.856958747E-2,-1.482269168E-2,2.870436544E-2
1.035788492E1,-1.349046755E-2,3.903601170E-3,-2.789706588E-2,3.123262879E-2
1.036784692E1,4.146429640E-3,2.650484383E-2,-3.085575700E-2,4.088737415E-2
1.037780892E1,-5.214839280E-3,1.198445320E-2,-2.995236218E-2,3.267974399E-2
1.038777192E1,1.070960030E-2,1.887305796E-2,-1.998461366E-2,2.950038370E-2
1.039773392E1,3.806432323E-3,4.353836775E-3,-4.897627831E-3,7.578362624E-3
1.040769592E1,2.384859994E-3,-2.531844378E-3,1.986226067E-3,4.005357304E-3
1.041765792E1,9.836825710E-3,-8.517639041E-3,-5.235085264E-3,1.402567049E-2
1.042761992E1,8.254244816E-3,1.812812269E-2,1.167279661E-2,2.308712997E-2
1.043758292E1,1.498095936E-2,3.459212780E-3,-1.666456461E-3,1.546519879E-2
1.044754492E1,-3.388228496E-3,4.357929826E-3,1.917959824E-3,5.843818494E-3
1.045750692E1,-7.832724522E-3,1.782289803E-2,1.670432568E-2,2.565232473E-2
1.046746892E1,-8.916053697E-3,-8.075004816E-3,-9.301750660E-3,1.520606069E-2
1.047743092E1,-1.102827813E-2,5.092924833E-3,-1.055130064E-2,1.609008226E-2
1.048739392E1,-1.122624749E-2,1.227272093E-2,-1.090271831E-2,1.988762375E-2
1.049735592E1,-6.277821972E-3,1.346730709E-2,-8.156865835E-3,1.695033537E-2
1.050731792E1,-3.213182045E-3,2.692058086E-3,-8.490668759E-3,9.469063922E-3
1.051727992E1,2.819454297E-4,1.047879517E-2,-1.810473382E-2,2.092046912E-2
1.052724192E1,-1.115799495E-3,1.499810815E-3,-9.477751851E-3,9.660342703E-3
1.053720392E1,8.442831226E-3,9.439744949E-3,-7.044761963E-3,1.449202729E-2
1.054716692E1,5.748475366E-3,1.408068001E-2,-6.306843348E-3,1.646471353E-2
1.055712892E1,3.759298283E-3,3.743095100E-2,-1.750780620E-2,4.149375488E-2
1.056709092E1,8.519964223E-3,9.051489830E-4,-1.612552442E-2,1.826038397E-2
1.057705292E1,6.734873238E-3,7.492037416E-3,-8.356255889E-3,1.308877972E-2
1.058701492E1,9.454143718E-3,-7.327145934E-3,-1.614474714E-2,2.009280371E-2
1.059697792E1,-1.449995278E-3,3.302507401E-3,5.672383904E-3,6.721977432E-3
1.060693992E1,-7.127714767E-3,-3.730523586E-3,1.041739941E-2,1.316219337E-2
1.061690192E1,9.485599911E-4,8.546290398E-3,-9.232753515E-3,1.261675803E-2
1.062686392E1,-1.482797701E-2,2.108505964E-3,-8.620550036E-3,1.728087332E-2
1.063682592E1,-1.877079564E-3,9.587679505E-3,-1.525713980E-2,1.811704559E-2
1.064678792E1,-1.630558668E-2,2.697905302E-3,-8.250421286E-4,1.654785619E-2
1.065675092E1,-5.277345101E-3,1.692067266E-2,-1.853041112E-2,2.564245836E-2
1.066671292E1,6.314572636E-3,1.961565435E-2,-2.349064071E-2,3.124832674E-2
1.067667492E1,-5.395394904E-3,1.826904058E-2,-8.096091338E-3,2.069818410E-2
1.068663692E1,4.021893083E-3,8.840990067E-3,-1.966948528E-2,2.193689541E-2
1.069659892E1,-7.080151322E-3,7.494961023E-3,-2.642711241E-2,2.836715096E-2
1.070656192E1,1.641981295E-2,2.066698372E-2,-6.803308502E-3,2.725838367E-2
1.071652392E1,-3.706189119E-3,2.515706062E-2,-3.807158656E-3,2.571202042E-2
1.072648592E1,1.307704656E-2,1.348543346E-2,-1.781124014E-2,2.588641222E-2
1.073644792E1,1.276380939E-2,5.260739923E-3,-1.782297112E-2,2.254436768E-2
1.074640992E1,-4.085193761E-4,1.672888398E-3,-3.690177798E-3,4.072205282E-3
1.075637292E1,-7.610662803E-3,8.110088110E-3,-7.004964352E-3,1.314401929E-2
1.076633492E1,-2.544530095E-3,1.589682519E-2,-1.139625985E-2,1.972456396E-2
1.077629692E1,-8.968039099E-3,2.562542260E-2,4.046273232E-3,2.744923197E-2
1.078625892E1,-2.492160969E-2,6.768736839E-3,2.043192565E-2,3.292971324E-2
1.079622092E1,-5.166563205E-3,-9.543825388E-3,2.425498143E-3,1.112029764E-2
1.080618292E1,-1.387566658E-2,-1.164765358E-3,7.580915093E-3,1.585437085E-2
1.081614592E1,-2.586170493E-2,-1.181137562E-4,3.419451714E-3,2.608705393E-2
1.082610792E1,-6.706678695E-3,2.123708725E-3,-2.342979312E-3,7.414798037E-3
1.083606992E1,-9.674775610E-3,6.904976964E-3,-6.971635222E-3,1.377982901E-2
1.084603192E1,9.190667267E-3,1.349128067E-2,-1.954139471E-2,2.546270069E-2
1.085599392E1,5.529117985E-3,2.621306777E-2,-1.187335610E-2,2.930311678E-2
1.086595692E1,-6.617869539E-3,2.741233170E-2,-1.236514349E-2,3.079170180E-2
1.087591892E1,-4.547480112E-3,1.528345227E-2,-3.457809448E-2,3.807765889E-2
1.088588092E1,8.753501102E-3,1.917594373E-2,-2.141074955E-2,3.004597803E-2
1.089584292E1,4.605714725E-3,1.259197891E-2,-2.357538879E-2,2.712138451E-2
1.090580492E1,3.082528752E-3,1.334919333E-2,-1.475310981E-2,2.013348443E-2
1.091576692E1,5.950044421E-3,1.813864768E-2,-1.758674361E-2,2.595586868E-2
1.092572992E1,1.530662643E-2,5.416860580E-3,-1.793399513E-2,2.419221719E-2
1.093569192E1,-1.521711378E-2,-3.711812496E-3,-3.161004782E-3,1.597905051E-2
1.094565392E1,-1.057048225E-2,9.302920103E-4,-5.297577381E-3,1.186022194E-2
1.095561592E1,-1.909654951E-2,7.966246605E-3,-1.684115052E-2,2.667889876E-2
1.096557792E1,-2.214199869E-2,-6.405624747E-3,6.995681897E-3,2.408816514E-2
1.097554092E1,6.948013385E-3,2.126632333E-3,6.379896998E-3,9.669567766E-3
1.098550292E1,1.630340768E-3,7.823574543E-4,9.923967496E-3,1.008737949E-2
1.099546492E1,-1.158868806E-2,4.221104980E-3,3.384953141E-3,1.278957881E-2
1.100542692E1,-3.994228444E-3,5.568303466E-3,-9.176035523E-3,1.145248848E-2
1.101538892E1,1.101458285E-2,1.155760646E-2,-9.215248413E-3,1.843421020E-2
1.102535192E1,3.111038497E-3,2.188788235E-2,-2.002262056E-2,2.982722395E-2
1.103531392E1,1.270577121E-2,8.410634995E-3,-2.530623771E-2,2.953948324E-2
1.104527592E1,2.054464444E-2,5.566549301E-3,-1.588224370E-2,2.655775878E-2
1.105523792E1,-3.866649508E-3,9.159078598E-3,-1.244115729E-2,1.592551707E-2
1.106519992E1,6.387324790E-3,2.068335593E-2,-2.365198731E-2,3.206268289E-2
1.107516312E1,-1.174515590E-2,4.673094749E-2,-3.490499038E-2,5.949864280E-2
1.108512613E1,-2.968325322E-3,2.607624292E-2,-1.354335744E-2,2.953309891E-2
1.109508812E1,-1.113877680E-2,9.467226863E-3,4.289444312E-3,1.523483067E-2
1.110505012E1,2.857123157E-3,-1.836668909E-2,-1.846616484E-2,2.620110045E-2
1.111501212E1,-1.310472947E-2,-7.734112144E-3,-2.094300885E-2,2.588744956E-2
1.112497412E1,-1.768755326E-3,2.000332475E-3,-1.577067152E-3,3.101123379E-3
1.113493713E1,-1.522022925E-2,-1.296795487E-2,2.295551084E-2,3.044304042E-2
1.114489912E1,-8.694256931E-3,1.103954315E-3,-7.017024234E-4,8.792110384E-3
1.115486112E1,-1.211513390E-2,-4.135735631E-3,1.549512148E-3,1.289502876E-2
1.116482313E1,-1.059029883E-2,-1.311764359E-2,2.080877870E-4,1.686031742E-2
1.117478512E1,-6.204809435E-3,1.681893110E-2,-3.661526442E-3,1.829707297E-2
1.118474713E1,5.792443687E-4,1.741300821E-2,-7.764517665E-3,1.907448856E-2
1.119471012E1,1.052078549E-3,2.141835093E-3,-2.567161560E-2,2.578228412E-2
1.120467212E1,5.235848143E-3,7.673301101E-3,-1.297146320E-2,1.595470191E-2
1.121463413E1,4.810641361E-3,1.500687897E-2,-2.769826055E-3,1.600064446E-2
1.122459612E1,1.932901744E-2,1.385790110E-3,-1.386082470E-2,2.382548617E-2
1.123455813E1,7.601800617E-3,1.800182283E-2,-2.718779862E-2,3.348177701E-2
1.124452112E1,-2.950998377E-3,2.533540070E-2,-2.941851139E-2,3.893635490E-2
1.125448312E1,7.208200777E-3,1.650376618E-2,-3.719757400E-2,4.132785947E-2
1.126444513E1,-4.092365736E-3,1.620555818E-2,-2.583592236E-2,3.077113026E-2
1.127440712E1,-2.505856245E-3,1.441163242E-2,-1.314212881E-2,1.966443526E-2
1.128436913E1,-1.072504974E-2,5.732610226E-3,-6.624237522E-3,1.384810582E-2
1.129433112E1,-3.027802468E-3,1.785915077E-2,-2.177729689E-2,2.832609245E-2
1.130429412E1,-1.189333257E-2,-9.832093120E-3,6.204480529E-3,1.663180668E-2
1.131425613E1,-1.432996326E-2,-2.343564034E-3,4.473119974E-3,1.519371389E-2
1.132421812E1,-2.374110254E-2,-7.882631421E-3,1.511629499E-2,2.922803794E-2
1.133418013E1,1.120765974E-2,-2.195044756E-3,-2.080439329E-3,1.160853505E-2
1.134414212E1,-1.538010949E-2,-5.046731830E-3,6.474037170E-3,1.743360053E-2
1.135410512E1,-5.714301132E-3,4.853188992E-4,3.304846287E-3,6.618971282E-3
1.136406713E1,1.180141251E-2,6.471113563E-3,-6.078692302E-3,1.476818026E-2
1.137402912E1,1.753161076E-2,1.374095678E-3,-3.849806786E-3,1.800184788E-2
1.138399112E1,8.585813921E-3,1.349712789E-2,-1.008812808E-2,1.891187431E-2
1.139395312E1,3.341039638E-3,2.307311296E-2,-1.929405749E-2,3.026205119E-2
1.140391612E1,5.049477280E-3,2.367362201E-2,-2.933950089E-2,3.803608698E-2
1.141387813E1,3.004221744E-3,1.304689229E-2,-3.133113563E-2,3.407178901E-2
1.142384012E1,4.712997428E-3,1.050393820E-2,-2.507461488E-2,2.759132788E-2
1.143380212E1,5.623637312E-3,2.038748682E-2,-1.242884159E-2,2.453061391E-2
1.144376412E1,-1.304349359E-3,1.530801058E-3,-1.625577115E-2,1.637970618E-2
1.145372612E1,1.735787080E-3,1.246275544E-2,-1.799239419E-2,2.195585295E-2
1.146368913E1,-2.157904887E-2,9.419864416E-4,-2.080146968E-2,2.998739451E-2
1.147365112E1,-3.571556979E-3,9.775375128E-3,-2.887939811E-3,1.080065621E-2
1.148361312E1,-9.428562149E-3,2.592070699E-3,4.265032187E-3,1.066804173E-2
1.149357513E1,-3.930105502E-3,-1.298666596E-3,-3.864278644E-4,4.157113263E-3
1.150353712E1,-7.806946523E-5,-7.131848931E-3,-3.976106644E-5,7.132387045E-3
1.151350013E1,-5.691350810E-4,9.783561230E-3,1.433276810E-2,1.736289798E-2
1.152346212E1,-2.383987480E-3,8.436362743E-3,-1.075960770E-3,8.832514037E-3
1.153342412E1,6.813993375E-3,2.446475029E-3,-1.794923443E-2,1.935434738E-2
1.154338613E1,9.218861810E-3,6.480469108E-3,4.345650673E-3,1.207760625E-2
1.155334812E1,-5.914221089E-3,2.249189973E-2,-2.024306059E-2,3.083253260E-2
1.156331113E1,6.314513250E-3,1.964839876E-2,-1.576120634E-2,2.596821666E-2
1.157327312E1,1.865947014E-3,9.168434143E-3,-2.768722393E-2,2.922540524E-2
1.158323512E1,7.883755183E-3,-5.651918650E-3,-3.678666092E-2,3.804413492E-2
1.159319713E1,2.541035470E-3,1.485543609E-2,-3.978562474E-2,4.254452701E-2
1.160315912E1,-1.374234093E-2,3.027688265E-2,-2.953019321E-2,4.446992094E-2
1.161312113E1,1.664674887E-3,1.815385044E-2,-2.671479542E-2,3.234213540E-2
1.162308412E1,-1.190795518E-2,1.276914954E-2,-1.167868037E-2,2.100576472E-2
1.163304612E1,-3.463173355E-3,3.746720374E-2,-3.025115490E-2,4.827957434E-2
1.164300813E1,-1.942818257E-2,3.927282393E-2,-2.355667770E-2,4.974661839E-2
1.165297012E1,-5.494934614E-3,3.973299980E-2,-1.555944085E-2,4.302327021E-2
1.166293213E1,-2.250390479E-2,1.759076357E-2,-2.195103228E-2,3.602372152E-2
1.167289512E1,-1.428475698E-2,-6.347737312E-3,-2.818186183E-2,3.222678058E-2
1.168285712E1,4.368925332E-3,-1.988053322E-4,-2.393974341E-2,2.433594763E-2
1.169281913E1,1.184947845E-2,1.103778899E-2,-4.845660701E-3,1.690335330E-2
1.170278112E1,2.307567112E-2,-5.865342021E-3,1.288024664E-2,2.707008659E-2
1.171274312E1,2.560384272E-2,-5.735650778E-2,4.564332884E-2,7.764431218E-2
1.172270613E1,3.745637725E-2,-5.331198871E-2,3.704792183E-2,7.495129651E-2
1.173266812E1,2.921851834E-2,1.105533063E-2,5.244301938E-2,6.104270989E-2
1.174263013E1,1.667334000E-2,2.108330548E-2,5.453698039E-3,2.742715550E-2
1.175259212E1,-3.372965435E-2,5.961236358E-3,1.061675292E-2,3.586002460E-2
1.176255412E1,-2.257432263E-2,-2.352919579E-2,-1.344516076E-2,3.527031960E-2
1.177251612E1,-2.668712164E-2,6.102154255E-3,-2.152769387E-2,3.482643179E-2
1.178247912E1,-3.698629309E-2,3.588319302E-2,-1.448885221E-2,5.353051705E-2
1.179244113E1,-2.752531087E-2,1.926306725E-2,-2.848065455E-2,4.404379845E-2
1.180240312E1,-3.528136835E-2,9.384196401E-3,-6.165925451E-3,3.702508246E-2
1.181236512E1,-7.334692497E-4,2.800816298E-3,-2.598451473E-2,2.614531611E-2
1.182232713E1,1.251683305E-3,1.132898033E-2,-8.515336700E-3,1.422756007E-2
1.183229012E1,-1.689178376E-3,2.674867272E-2,-5.839555800E-2,6.425251754E-2
1.184225213E1,1.692862578E-2,2.649373412E-3,-1.979812402E-2,2.618326307E-2
1.185221412E1,1.072344633E-2,8.786026239E-3,-7.217218280E-3,1.562929294E-2
1.186217612E1,1.221298797E-2,6.391006708E-3,5.467146635E-4,1.379496063E-2
1.187213813E1,2.571639248E-2,4.620937586E-2,3.494844250E-3,5.299861504E-2
1.188210112E1,1.311437281E-2,2.915421724E-2,-1.301239371E-2,3.451488878E-2
1.189206313E1,2.231349570E-2,-1.275628567E-2,3.243867137E-2,4.138698242E-2
1.190202512E1,5.361924162E-3,-3.655913115E-2,1.152837038E-2,3.870689376E-2
1.191198712E1,1.210128331E-2,-2.144583285E-2,3.303267539E-2,4.120100056E-2
1.192194913E1,-1.571335053E-2,2.050618529E-3,6.933628321E-3,1.729709869E-2
1.193191112E1,-1.731625050E-2,2.030971885E-2,-1.755630154E-2,3.194621941E-2
1.194187412E1,-3.411062330E-2,2.015593708E-2,-7.738205194E-3,4.036924870E-2
1.195183612E1,-1.911135484E-2,2.936471701E-3,-4.325243890E-2,4.737763418E-2
1.196179812E1,-2.917547735E-2,2.793390334E-2,-2.975816153E-2,5.017030608E-2
1.197176013E1,-3.456100508E-2,3.781803668E-2,-5.978017867E-2,7.872951627E-2
1.198172212E1,-1.142155363E-2,2.015593708E-2,-2.267901063E-2,3.241991995E-2
1.199168512E1,-1.568434743E-2,1.058053672E-2,-1.829535306E-2,2.631855724E-2
1.200164712E1,5.543516753E-3,5.196420550E-3,-3.255181499E-3,8.266170281E-3
1.201160912E1,2.696836358E-2,-8.871395588E-3,4.083512686E-2,4.973431290E-2
1.202157113E1,2.755315823E-2,8.939808011E-3,1.137513679E-2,3.112057893E-2
1.203153312E1,3.044596311E-2,-7.679733038E-3,1.983781200E-2,3.714126754E-2
1.204149612E1,1.262370919E-2,-7.981449366E-4,-1.046713728E-2,1.641816165E-2
1.205145813E1,2.450617873E-2,1.071970046E-2,-5.529163666E-3,2.731366736E-2
1.206142012E1,7.696575760E-3,1.999864697E-2,-1.491102118E-2,2.610597081E-2
1.207138075E1,1.395990760E-3,1.116759717E-2,-2.480154991E-2,2.723565485E-2
1.208134275E1,-1.123444729E-2,9.519267082E-3,-1.939696848E-2,2.435306219E-2
1.209130475E1,-8.583100447E-3,-7.244700193E-3,-1.551383257E-2,1.915291871E-2
1.210126775E1,-3.090545833E-2,2.785028815E-3,1.350239038E-2,3.384107395E-2
1.211122975E1,-3.333840711E-2,2.673931718E-2,-7.526462898E-3,4.339456320E-2
1.212119175E1,-2.318772296E-2,1.251947343E-2,-1.261540432E-2,2.921568307E-2
1.213115375E1,-2.447039194E-2,1.042149246E-2,4.484814405E-4,2.660091582E-2
1.214111575E1,-1.357012216E-2,6.979821324E-3,-7.655759454E-3,1.707269088E-2
1.215107875E1,-1.566192244E-2,2.583943069E-2,-3.068326414E-2,4.306314771E-2
1.216104075E1,-6.272993451E-3,3.242631912E-2,-3.591951884E-2,4.879578314E-2
1.217100275E1,1.047964028E-2,3.302975178E-2,-3.811039746E-2,5.150912305E-2
1.218096475E1,2.737264372E-2,1.059106171E-2,-3.704916436E-2,4.726597923E-2
1.219092675E1,2.026202749E-2,7.756916285E-3,-2.361924291E-2,3.207160962E-2
1.220088975E1,3.213569880E-2,1.600207508E-2,-2.790474035E-2,4.546915524E-2
1.221085175E1,2.365341257E-2,2.409696043E-2,-1.488774195E-3,3.379887390E-2
1.222081375E1,1.290178997E-2,2.231531382E-2,-4.787188545E-3,2.621729562E-2
1.223077575E1,3.118411470E-3,2.951615989E-2,-1.631903071E-2,3.387091596E-2
1.224073775E1,7.987456466E-3,2.130491495E-2,-2.556336902E-2,3.422257585E-2
1.225069975E1,7.280651433E-4,1.398478568E-2,-3.078551732E-2,3.382088683E-2
1.226066275E1,-1.103625866E-2,1.041213691E-2,-3.745843291E-2,4.041467304E-2
1.227062475E1,-8.226644131E-3,2.316199064E-2,-4.377978466E-2,5.020781841E-2
1.228058675E1,-2.500742672E-2,4.327524304E-3,-3.321269654E-2,4.179930704E-2
1.229054875E1,-2.782440509E-2,1.513317883E-2,-6.655922122E-3,3.236528880E-2
1.230051075E1,-2.690276970E-2,1.247094154E-2,-1.056643032E-2,3.147908591E-2
1.231047375E1,-1.595228695E-2,1.849123478E-2,-4.311079010E-3,2.479892386E-2
1.232043575E1,-3.355040979E-3,-3.414773941E-4,1.850292921E-2,1.880774564E-2
1.233039775E1,-1.737897559E-3,1.781061888E-3,1.515302282E-2,1.535599459E-2
1.234035975E1,-1.672239723E-3,3.597791791E-3,-5.453149863E-3,6.743688522E-3
1.235032175E1,6.108545079E-3,2.622710109E-2,-8.646277785E-3,2.828309166E-2
1.236028475E1,1.680832846E-2,3.493302047E-2,-1.928119361E-2,4.329665405E-2
1.237024675E1,2.000978866E-2,9.063768983E-3,-1.395788848E-2,2.602625984E-2
1.238020875E1,1.515170263E-2,-1.441631019E-2,-2.155634522E-2,3.003464852E-2
1.239017075E1,-7.318978105E-3,3.305664897E-2,-2.734918177E-2,4.352341008E-2
1.240013275E1,4.996544447E-2,-2.515355229E-2,3.577984348E-3,5.605398118E-2
1.241009575E1,-8.194275225E-2,-9.119902253E-3,-2.024949253E-2,8.489893527E-2
1.242005775E1,4.116660917E-2,3.475584984E-2,2.835789956E-2,6.088373573E-2
1.243001975E1,-6.268333494E-2,3.358289838E-2,-2.164573453E-2,7.433403908E-2
1.243998175E1,-7.587940888E-3,-3.031781316E-2,2.757598065E-2,4.167950756E-2
1.244994375E1,-5.650741441E-2,-3.958974302E-2,1.125757121E-2,6.990828667E-2
1.245990575E1,2.505041746E-2,-3.644101739E-2,-3.056851253E-3,4.432623944E-2
1.246986875E1,-7.441475902E-2,-6.207988858E-3,7.335916758E-3,7.503273393E-2
1.247983075E1,2.991723777E-2,3.810630441E-2,-1.448464952E-2,5.056616085E-2
1.248979275E1,-1.189758550E-2,1.880406082E-2,1.304696538E-2,2.579473880E-2
1.249975475E1,1.233643731E-2,-9.483599067E-3,6.407927088E-3,1.682818666E-2
1.250971675E1,8.127081580E-3,-2.295616865E-3,-3.680895343E-3,9.212399380E-3
1.251967975E1,2.237778309E-2,6.088120937E-3,1.844036400E-2,2.962899622E-2
1.252964175E1,-1.480391663E-3,1.747031093E-2,-2.656857848E-2,3.183225857E-2
1.253960375E1,2.203196140E-2,1.866782069E-2,-2.283282895E-2,3.681348843E-2
1.254956575E1,-1.461004489E-3,2.630428433E-2,-4.503298916E-2,5.217298172E-2
1.255952775E1,2.563783423E-2,7.597872019E-3,-2.939863086E-2,3.974047935E-2
1.256949075E1,-7.705182130E-3,2.242231786E-2,-1.245168228E-2,2.678011504E-2
1.257945275E1,1.924980594E-2,8.212414384E-3,-2.102885328E-2,2.966835771E-2
1.258941475E1,-1.972037890E-2,-1.318956435E-2,4.935634732E-3,2.423259049E-2
1.259937675E1,-7.298645326E-3,8.218846321E-3,-7.825328708E-3,1.349279170E-2
1.260933875E1,-2.468904583E-2,-1.468294322E-2,3.271104198E-2,4.353332141E-2
1.261930075E1,-3.766110746E-2,1.777553558E-3,1.095530670E-2,3.926241786E-2
1.262926375E1,-1.755562089E-2,6.973974109E-2,-1.859531522E-2,7.428066410E-2
1.263922575E1,1.990145529E-2,-8.849176168E-3,3.578199964E-2,4.188946574E-2
1.264918775E1,-6.646768489E-2,-7.455492318E-2,-5.805353243E-2,1.155274960E-1
1.265914975E1,4.194568670E-2,-4.387867570E-2,5.738808274E-2,8.353544670E-2
1.266911175E1,-2.331398170E-2,6.030175030E-2,-6.588752232E-2,9.230930847E-2
1.267907475E1,3.160942655E-2,5.955856919E-2,8.838724270E-3,6.800369150E-2
1.268903675E1,-3.519096034E-2,2.858060539E-2,-3.155628998E-2,5.523634792E-2
1.269899875E1,5.695283976E-2,-4.131233275E-2,-2.580262978E-2,7.494071322E-2
1.270896075E1,-3.205118369E-2,-3.099024296E-2,2.942841511E-2,5.342008191E-2
1.271892275E1,4.340870574E-2,3.247718990E-2,-4.405705232E-2,6.985776590E-2
1.272888575E1,-2.562015097E-2,3.038388669E-2,1.458997250E-2,4.233721771E-2
1.273884775E1,8.805098212E-3,1.317962408E-2,1.127924245E-2,1.945388279E-2
1.274880975E1,-2.831569911E-2,-1.777553558E-3,-2.380639035E-2,3.703623542E-2
1.275877175E1,1.223621238E-4,-1.959109604E-2,2.574993175E-2,3.235560232E-2
1.276873375E1,-4.045099220E-2,1.520276070E-3,-3.780407645E-2,5.538720254E-2
1.277869575E1,7.937723156E-3,1.094598770E-2,1.497351330E-2,2.017493981E-2
1.278865875E1,-4.609630076E-2,2.860633314E-2,-3.870918889E-2,6.664527398E-2
1.279862075E1,-6.437510345E-3,1.618333876E-2,1.081786059E-2,2.050288030E-2
1.280858275E1,-1.317778769E-2,5.102865100E-3,1.253347021E-2,1.888865257E-2
1.281854475E1,2.275149326E-2,-1.435549915E-2,-3.389287390E-2,4.327167321E-2
1.282850675E1,6.119951718E-3,-2.533013821E-3,4.041127682E-2,4.095047328E-2
1.283846975E1,5.831464715E-3,-2.984418869E-3,-1.492563922E-2,1.629992156E-2
1.284843175E1,8.943864517E-4,2.260533571E-2,1.394202791E-2,2.657407142E-2
1.285839375E1,1.416803193E-2,5.134381592E-2,-2.882794261E-2,6.056377496E-2
1.286835575E1,2.292557584E-2,1.137868166E-2,-3.305668551E-2,4.180670856E-2
1.287831775E1,7.682387126E-3,-1.182365477E-2,-2.374963582E-2,2.761997620E-2
1.288828075E1,2.572199759E-2,-1.122840822E-2,-4.762447514E-2,5.527919087E-2
1.289824275E1,-1.404381058E-2,4.206194580E-2,-2.024605729E-2,4.874770492E-2
1.290820475E1,-1.555948653E-2,7.260838509E-2,-5.366757251E-2,9.162032278E-2
1.291816675E1,1.793793286E-2,-3.591067493E-2,8.577499911E-4,4.015073778E-2
1.292812875E1,-6.692654971E-2,-2.783040762E-2,-9.269627519E-3,7.307270789E-2
1.293809175E1,1.630138400E-2,3.294204354E-2,-9.850219488E-3,3.805180911E-2
1.294805375E1,-4.419564047E-2,7.680493176E-2,-4.882425070E-4,8.861427966E-2
1.295801575E1,2.609215375E-2,7.953382730E-3,2.918637693E-2,3.994873443E-2
1.296797775E1,-6.404344298E-2,-7.946132183E-2,2.061143517E-2,1.041177003E-1
1.297793975E1,2.693695764E-2,-5.102689683E-2,2.458132915E-3,5.775280344E-2
1.298790175E1,-3.886631910E-2,1.617456794E-2,-7.991426177E-3,4.284939090E-2
1.299786475E1,2.570795513E-2,6.930763185E-2,1.173002623E-2,7.484677886E-2
1.300782675E1,-7.065400807E-3,5.374585211E-2,-1.681958891E-2,5.675768740E-2
1.301778875E1,1.353137065E-2,-1.227213621E-2,5.870604515E-3,1.918768658E-2
1.302775075E1,1.046962235E-3,-6.735407710E-3,-3.943471871E-2,4.001948134E-2
1.303771275E1,2.743637381E-2,1.377077758E-2,-3.809344053E-2,4.892340068E-2
1.304767575E1,1.646063840E-2,5.568128049E-2,-3.476579010E-2,6.767582859E-2
1.305763775E1,8.606247199E-3,6.601623416E-2,-5.838093996E-2,8.854685096E-2
1.306759975E1,1.274424863E-2,9.027750134E-2,-2.761230648E-2,9.526217818E-2
1.307756167E1,3.344246470E-3,5.422298491E-2,-3.236207284E-2,6.323464110E-2
1.308752367E1,-9.429283915E-3,-3.467632771E-2,-2.577518441E-2,4.422351444E-2
1.309748667E1,7.457940839E-3,-8.121957958E-2,5.612084493E-3,8.175412210E-2
1.310744867E1,-2.019650213E-2,-2.523132026E-2,1.628972154E-2,3.619217109E-2
1.311741067E1,-8.664573175E-3,5.575203180E-2,1.431043904E-2,5.820783920E-2
1.312737267E1,-2.902578863E-2,2.282577574E-2,1.494782209E-2,3.983653887E-2
1.313733467E1,-4.285321569E-2,-6.040407658E-2,1.531385779E-2,7.562780443E-2
1.314729667E1,-1.939278407E-2,-7.343518138E-2,2.506065466E-2,7.998026225E-2
1.315725967E1,-1.716402646E-2,-5.009718955E-2,-4.201224446E-3,5.312233515E-2
1.316722167E1,-4.031589411E-2,4.269987702E-2,-1.296678543E-2,6.013974011E-2
1.317718367E1,1.316460861E-2,9.523594022E-2,-2.485008180E-2,9.930114700E-2
1.318714567E1,-9.693276566E-3,3.760929108E-2,-2.134116769E-2,4.431550320E-2
1.319710767E1,7.839371162E-3,-7.210786343E-2,-1.020050425E-2,7.324650159E-2
1.320707067E1,2.283887716E-2,-7.495721161E-2,9.044400081E-3,7.887964919E-2
1.321703267E1,1.581555346E-2,1.873915672E-2,-2.763631660E-2,3.694663343E-2
1.322699467E1,-5.092522837E-3,6.423809588E-2,-2.664064541E-3,6.449468188E-2
1.323695667E1,3.983762842E-3,1.310086209E-1,-3.397531964E-2,1.354010763E-1
1.324691867E1,2.085511789E-2,6.232079387E-2,-3.630715270E-2,7.508013470E-2
1.325688167E1,-2.260435356E-2,-7.837841749E-2,-8.914664984E-3,8.205854240E-2
1.326684367E1,1.995873059E-2,-1.259823543E-1,-5.564210415E-3,1.276748407E-1
1.327680567E1,-1.591379126E-2,-4.306181967E-2,-6.043024287E-3,4.630428931E-2
1.328676767E1,-4.367839486E-2,1.271325016E-1,3.434033208E-3,1.344703228E-1
1.329672967E1,6.443522014E-3,1.069321257E-1,-1.730775833E-4,1.071262266E-1
1.330669267E1,-5.284699345E-2,-4.603278995E-2,2.300119221E-2,7.376230277E-2
1.331665467E1,-5.826960532E-3,-1.391438520E-1,3.941549599E-2,1.447361266E-1
1.332661667E1,-4.392136951E-2,-6.102037311E-2,-1.421516597E-2,7.651564270E-2
1.333657867E1,2.419327503E-2,3.132119536E-2,7.501941137E-3,4.028164541E-2
1.334654067E1,-5.031037081E-2,9.882496119E-2,-4.386877198E-2,1.192559245E-1
1.335650267E1,2.686666314E-2,7.428127348E-2,-1.494964935E-2,8.039289269E-2
1.336646567E1,-3.225702396E-2,8.422914147E-3,-3.689772148E-2,4.972829102E-2
1.337642767E1,2.472657764E-2,-2.735093594E-2,-3.230184652E-2,4.901924752E-2
1.338638967E1,1.288648215E-2,-4.097027063E-2,-2.008109272E-2,4.741175785E-2
1.339635167E1,-2.442235798E-3,-1.358542085E-2,-1.409705222E-2,1.972954780E-2
1.340631367E1,-1.267521950E-2,9.179251492E-2,-1.311004221E-2,9.358632481E-2
1.341627667E1,2.380212371E-2,1.391017520E-1,-2.000745434E-2,1.425346861E-1
1.342623867E1,-1.735880270E-2,6.950000525E-3,-2.598561108E-2,3.201378643E-2
1.343620067E1,3.301068437E-3,-1.175851679E-1,1.567580044E-2,1.186713928E-1
1.344616267E1,6.500559775E-3,-1.181862617E-1,-3.577151120E-2,1.236521360E-1
1.345612467E1,-1.626114327E-2,4.062119186E-2,3.720926844E-2,5.743723240E-2
1.346608767E1,9.779660041E-3,1.475065398E-1,-2.249241136E-2,1.495317010E-1
1.347604967E1,-2.746896290E-2,3.794433653E-2,1.907654107E-2,5.057895824E-2
1.348601167E1,-4.135662541E-3,-1.130985993E-1,2.325083178E-2,1.155378641E-1
1.349597367E1,-2.861299348E-2,-1.077203304E-1,1.009229422E-3,1.114602688E-1
1.350593567E1,1.882506511E-2,-1.448238373E-2,3.233510256E-2,4.012083464E-2
1.351589867E1,-3.501590932E-2,9.074060082E-2,-3.035984002E-2,1.018905807E-1
1.352586067E1,2.358373934E-3,6.529293358E-2,-1.462205909E-2,6.695172676E-2
1.353582267E1,-1.682660101E-2,1.005721092E-2,-2.029093467E-2,2.821354325E-2
1.354578467E1,1.646766419E-2,-5.595843852E-2,-2.876771629E-2,6.503931354E-2
1.355574667E1,8.085383624E-3,-7.452978015E-2,3.940789461E-2,8.469382336E-2
1.356570867E1,2.073381557E-2,8.534595966E-3,2.050150752E-2,3.038161034E-2
1.357567167E1,-1.780071972E-2,2.573593497E-2,5.715887189E-2,6.516395175E-2
1.358563367E1,2.201513238E-2,3.712397218E-3,6.458125435E-2,6.833144489E-2
1.359559567E1,1.700679118E-2,-8.432620525E-2,4.540129066E-2,9.726981563E-2
1.360555767E1,4.762269356E-3,-6.101043284E-2,7.201193254E-2,9.450222512E-2
1.361551967E1,-9.981690478E-3,1.589331686E-2,-6.761172004E-3,1.994856167E-2
1.362548267E1,-5.474638380E-4,6.271372676E-2,5.703958869E-3,6.297496636E-2
1.363544467E1,-4.109433667E-2,9.622411966E-2,-8.941156525E-2,1.376308603E-1
1.364540667E1,-6.100171683E-3,6.822531223E-2,-9.704090260E-2,1.187806470E-1
1.365536867E1,-2.767618731E-2,2.210890710E-2,-7.615179777E-2,8.398732893E-2
1.366533067E1,1.664693160E-2,4.140822709E-2,-1.030466509E-1,1.122959209E-1
1.367529367E1,7.435707715E-3,8.526760697E-2,-7.746566713E-2,1.154416915E-1
1.368525567E1,7.751598973E-3,8.752521694E-2,-6.378786027E-2,1.085801179E-1
1.369521767E1,6.724805064E-3,3.395302713E-2,-2.381972931E-2,4.201678901E-2
1.370517967E1,4.661784042E-3,-1.602955699E-2,3.174416833E-3,1.699281760E-2
1.371514167E1,7.308010007E-3,-3.727249146E-2,-3.104981147E-2,4.905849999E-2
1.372510467E1,-1.025243940E-2,-1.721361816E-2,1.937891521E-2,2.787406534E-2
1.373506667E1,-2.017420506E-2,7.490283251E-3,2.138560653E-2,3.033887044E-2
1.374502867E1,6.902190400E-3,2.103828192E-3,5.667355299E-2,5.713105928E-2
1.375499067E1,-2.419216954E-3,-1.391052604E-2,6.082281031E-2,6.244012811E-2
1.376495267E1,3.874881291E-3,-8.157158196E-2,6.982277155E-2,1.074437393E-1
1.377491467E1,1.387113499E-2,-8.877242804E-2,6.533620298E-2,1.110935272E-1
1.378487767E1,-8.950721291E-3,-2.921327412E-2,2.748074412E-2,4.109406398E-2
1.379483967E1,-1.942230337E-3,2.105816245E-2,2.750292700E-2,3.469336331E-2
1.380480167E1,1.706873969E-2,6.534965158E-2,-1.483855225E-2,6.915274014E-2
1.381476367E1,1.786685265E-2,3.285082698E-2,-3.787365831E-2,5.322419798E-2
1.382472567E1,-6.552595426E-3,1.816612959E-2,-6.168987930E-2,6.464198310E-2
1.383468867E1,-1.227326454E-2,5.707818031E-2,-9.207369290E-2,1.090234682E-1
1.384465067E1,7.067698580E-3,8.072548985E-2,-9.755370341E-2,1.268198806E-1
1.385461267E1,-1.465273413E-2,8.746849895E-2,-9.319292307E-2,1.286482096E-1
1.386457467E1,-1.001280863E-2,3.344431937E-2,-4.361324865E-2,5.586496481E-2
1.387453667E1,1.565075791E-3,-3.944473207E-2,-5.767693520E-3,3.989489490E-2
1.388449967E1,1.795617343E-2,-3.240409970E-2,1.958290994E-2,4.190394019E-2
1.389446167E1,2.156037432E-2,1.310711861E-2,1.931978524E-2,3.177893014E-2
1.390442367E1,1.283119855E-2,2.298891306E-2,3.290001668E-2,4.213716741E-2
1.391438567E1,1.385404559E-2,1.251070261E-2,3.185570396E-2,3.692205485E-2
1.392434767E1,3.203689456E-3,-9.501140714E-3,1.614416242E-3,1.015586731E-2
1.393431067E1,-2.026580991E-2,-2.312749207E-2,-5.324401483E-3,3.120790272E-2
1.394427267E1,-1.443371023E-2,-8.310647607E-3,1.904438138E-3,1.676382233E-2
1.395423467E1,-1.592756876E-2,2.192238092E-2,-1.254161976E-2,2.985917712E-2
1.396419667E1,-2.346517791E-2,4.617370784E-2,-1.649148703E-2,5.435618654E-2
1.397415867E1,-1.076768417E-2,2.198553085E-4,-1.142012380E-2,1.569747070E-2
1.398412067E1,-7.943319124E-3,-3.106801093E-2,1.678625979E-2,3.619525023E-2
1.399408367E1,-7.190850992E-3,-2.778362989E-2,-1.103954315E-2,3.074914537E-2
1.400404567E1,1.391725034E-2,1.471919596E-2,-3.388461471E-3,2.053840933E-2
1.401400767E1,1.135574961E-3,3.521953404E-2,-2.943780720E-2,4.591611483E-2
1.402396967E1,1.097049576E-2,4.554688632E-2,-4.587542675E-2,6.557000390E-2
1.403393167E1,6.258485047E-4,6.776922941E-3,-4.975922048E-2,5.022248892E-2
1.404389467E1,2.045879087E-2,-1.507996917E-2,-4.358287968E-2,5.045230416E-2
1.405385667E1,1.703462941E-2,8.865548372E-3,-2.645316906E-3,1.938489743E-2
1.406381867E1,2.793422311E-2,3.446407378E-2,-1.930750608E-2,4.838256910E-2
1.407378042E1,1.004337860E-2,1.979867220E-3,1.978226345E-2,2.227391468E-2
1.408374242E1,-1.448510634E-4,-2.032492161E-2,4.647187930E-2,5.072237165E-2
1.409370542E1,-1.060419967E-3,-4.682742655E-2,3.571355067E-2,5.890152859E-2
1.410366742E1,3.006291110E-5,-5.077137351E-3,1.472972095E-2,1.558020882E-2
1.411362942E1,-2.492838424E-2,3.876879394E-2,-1.331754528E-2,4.797708554E-2
1.412359142E1,-3.011516145E-2,2.543889642E-2,-1.362759389E-2,4.171057079E-2
1.413355342E1,-3.013653577E-2,-4.056213498E-3,-3.221059341E-2,4.429656853E-2
1.414351642E1,-1.264152036E-2,1.404910505E-2,-3.268366970E-2,3.775457131E-2
1.415347842E1,-3.649565231E-2,1.179675758E-2,-2.551432550E-2,4.606600626E-2
1.416344042E1,7.899496984E-4,1.868068457E-2,-1.405670643E-3,1.875014417E-2
1.417340242E1,-8.328326298E-3,-1.395262599E-2,1.328012310E-2,2.098567274E-2
1.418336442E1,1.975641236E-2,-2.922555327E-2,3.404365897E-2,4.902468266E-2
1.419332742E1,2.774549508E-4,5.513924360E-4,2.573648315E-2,2.574388432E-2
1.420328942E1,1.673039604E-2,-1.039050221E-2,2.600253146E-2,3.261901792E-2
1.421325142E1,1.543926230E-2,-1.909642160E-2,7.454542145E-3,2.566348255E-2
1.422321342E1,5.580176055E-3,2.728544712E-2,-3.208835006E-2,4.248877733E-2
1.423317542E1,-2.420819457E-2,4.254726470E-2,-4.871615030E-2,6.906207148E-2
1.424313742E1,2.105207769E-3,1.046639907E-1,-4.774843611E-2,1.150604016E-1
1.425310042E1,-6.618088810E-4,8.371341705E-2,-4.023300983E-2,9.288201799E-2
1.426306242E1,3.164138524E-3,-2.353504300E-3,1.835320394E-2,1.877207634E-2
1.427302442E1,6.919599571E-3,-6.312478602E-2,-1.103844680E-2,6.445515321E-2
1.428298642E1,2.506619124E-3,-5.429724455E-2,5.877913535E-2,8.005910727E-2
1.429294842E1,-1.730108885E-3,-1.568281710E-2,3.510441698E-2,3.848719424E-2
1.430291142E1,4.154930944E-3,1.394151628E-2,2.175054587E-2,2.616707040E-2
1.431287342E1,-8.157733781E-3,1.272880375E-2,3.044407647E-2,3.399136446E-2
1.432283542E1,-1.513332501E-3,1.795796871E-2,-1.949878313E-2,2.655148506E-2
1.433279742E1,-9.930883655E-3,1.630320668E-2,-1.006890535E-2,2.158239684E-2
1.434275942E1,-7.064998811E-3,4.803253770E-2,-4.080015320E-2,6.341680682E-2
1.435272242E1,1.422992562E-2,4.502999246E-2,-3.239653487E-2,5.726889623E-2
1.436268442E1,8.002312048E-3,1.044955909E-2,-7.660510316E-3,1.522871307E-2
1.437264642E1,2.055922137E-2,-3.370744407E-2,-2.176859915E-2,4.508597651E-2
1.438260842E1,1.392518976E-3,-2.787660062E-2,3.882726610E-2,4.781841239E-2
1.439257042E1,2.678744250E-2,2.809821010E-2,9.939097166E-3,4.007320974E-2
1.440253342E1,1.152358297E-3,3.811741412E-2,4.001213126E-3,3.834416377E-2
1.441249542E1,-1.461387299E-2,8.014193773E-3,-3.020086884E-3,1.693852149E-2
1.442245742E1,-9.169238135E-3,-9.057921767E-3,-4.402361356E-2,4.587155355E-2
1.443241942E1,-2.657781982E-2,2.790057421E-2,-4.193509776E-2,5.695063627E-2
1.444238142E1,-3.242718707E-2,6.487310350E-2,-7.724807762E-2,1.059589898E-1
1.445234442E1,-3.718148503E-3,4.931190848E-2,-2.738605577E-2,5.652862105E-2
1.446230642E1,-2.690211189E-2,2.222292781E-2,-3.197845895E-2,4.733079316E-2
1.447226842E1,-4.427420329E-3,2.881683290E-2,-1.775218327E-2,3.413432173E-2
1.448223042E1,2.541026333E-2,-4.110007882E-3,3.618249737E-2,4.440435523E-2
1.449219242E1,-3.291895618E-3,-4.752207577E-2,1.526240230E-2,5.002124735E-2
1.450215442E1,1.480415875E-2,-3.466287911E-2,7.540035747E-2,8.429645432E-2
1.451211742E1,1.170630846E-4,1.128629565E-2,-8.167427368E-3,1.393201504E-2
1.452207942E1,2.269448748E-2,1.067526162E-2,3.922655784E-2,4.655882099E-2
1.453204142E1,-1.036445470E-2,1.396432042E-2,-1.919995386E-2,2.590487202E-2
1.454200342E1,2.624546043E-2,-2.226561248E-2,-1.193182826E-2,3.642732790E-2
1.455196542E1,-3.382187134E-2,-1.539045632E-2,1.268553436E-2,3.926458848E-2
1.456192842E1,2.552549916E-2,-1.920225620E-3,-5.912879884E-2,6.443177187E-2
1.457189042E1,-1.282036750E-2,1.872453868E-2,4.290394485E-2,4.853574616E-2
1.458185242E1,9.192859973E-3,2.186683238E-2,-2.188733418E-2,3.227572509E-2
1.459181442E1,-1.165843438E-3,-1.795095205E-3,1.860350132E-2,1.872623345E-2
1.460177642E1,1.181830091E-2,-3.157496452E-4,2.189782262E-3,1.202360515E-2
1.461173942E1,-7.272593239E-3,1.135295391E-2,-4.631637990E-2,4.823885594E-2
1.462170142E1,-3.428849742E-2,5.520063937E-2,-1.780594110E-2,6.737850682E-2
1.463166342E1,8.100207229E-3,6.283710301E-2,-9.283858180E-2,1.123971403E-1
1.464162542E1,-1.819275726E-2,3.948624730E-2,-3.549895786E-2,5.612767723E-2
1.465158742E1,5.013507768E-3,3.020788550E-2,-6.431177080E-2,7.122959687E-2
1.466155042E1,-1.236619873E-2,1.898941755E-2,-2.570837997E-2,3.427012767E-2
1.467151242E1,9.141372498E-3,1.181079090E-2,-1.251245677E-2,1.948386633E-2
1.468147442E1,1.285276016E-2,2.993774414E-3,6.788617373E-4,1.321427191E-2
1.469143642E1,2.755541489E-2,-2.065411985E-2,4.687186539E-2,5.816240471E-2
1.470139842E1,-7.826196654E-3,-3.697019041E-2,2.951440573E-2,4.794939497E-2
1.471136142E1,-6.023682794E-4,-3.368639410E-2,2.581143714E-2,4.244250561E-2
1.472132342E1,-8.390617417E-3,-2.713692784E-3,4.357754409E-2,4.446086974E-2
1.473128542E1,-4.307753406E-3,1.853450418E-2,4.796397910E-3,1.962371059E-2
1.474124742E1,-2.014785147E-2,2.017230928E-2,-3.257483840E-3,2.869615273E-2
1.475120942E1,-1.435905773E-2,5.047316551E-3,-2.334559321E-2,2.786888347E-2
1.476117242E1,-2.722144295E-2,-8.010685444E-4,-1.281596381E-2,3.009813276E-2
1.477113442E1,-1.112423185E-2,1.700604200E-2,1.072379351E-3,2.034954536E-2
1.478109642E1,-3.728554719E-3,1.221190989E-2,-9.146726355E-3,1.570654216E-2
1.479105842E1,8.919379301E-4,1.609855413E-2,-8.601254225E-3,1.827404095E-2
1.480102042E1,1.895132842E-2,2.822450995E-2,-1.880000431E-2,3.884862898E-2
1.481098342E1,1.376133524E-2,2.771580219E-3,-7.286800146E-3,1.581624042E-2
1.482094542E1,5.452345870E-3,1.129623592E-2,-4.663973093E-2,4.829697219E-2
1.483090742E1,1.223475058E-2,5.380724788E-2,-5.544439517E-2,7.822397332E-2
1.484086942E1,1.280141886E-2,1.862981379E-2,-2.597391665E-2,3.443240673E-2
1.485083142E1,-2.417230728E-2,1.489285827E-2,-6.486382104E-2,7.080545846E-2
1.486079342E1,-8.573032273E-3,4.483761907E-2,1.761766076E-3,4.568383506E-2
1.487075642E1,7.781195934E-3,3.736253858E-2,-7.484436035E-5,3.816427519E-2
1.488071842E1,-3.842579992E-3,5.037376285E-3,2.340172648E-2,2.424420309E-2
1.489068042E1,-7.115590931E-3,-2.684222817E-2,1.915730573E-2,3.373631887E-2
1.490064242E1,8.603826086E-3,-2.234571934E-2,2.052898943E-2,3.154039320E-2
1.491060442E1,-1.786070393E-2,-1.500921786E-2,1.046885490E-2,2.557104395E-2
1.492056742E1,2.561783949E-3,6.996778250E-3,-4.167076707E-2,4.233167220E-2
1.493052942E1,-3.814860079E-2,-1.620672762E-2,-3.221815825E-4,4.144969920E-2
1.494049142E1,1.639449634E-2,2.525880218E-2,-3.284212925E-2,4.455773839E-2
1.495045342E1,-1.958100960E-2,4.397457004E-2,-3.263276238E-2,5.815561819E-2
1.496041542E1,2.497554112E-2,2.571780860E-2,8.582506590E-3,3.686248436E-2
1.497037842E1,-1.692050820E-2,-6.155363917E-3,-8.667327762E-3,1.998285949E-2
1.498034042E1,1.296025756E-2,-3.758648694E-2,3.510617115E-2,5.303918861E-2
1.499030242E1,1.861533280E-2,-4.028614640E-2,2.202470720E-2,4.954383851E-2
1.500026442E1,4.412382022E-3,-4.974811077E-3,3.579665422E-2,3.640904165E-2
1.501022642E1,9.162865584E-3,1.298023403E-2,1.724051535E-2,2.344525433E-2
1.502018942E1,-1.323629639E-2,1.656983972E-2,5.038545728E-3,2.179784561E-2
1.503015142E1,4.835606231E-3,2.329062939E-2,-3.654875234E-4,2.379012581E-2
1.504011342E1,-4.438191997E-2,1.205988228E-2,-4.667773783E-2,6.552867151E-2
1.505007542E1,2.144252095E-2,2.268134952E-2,-2.411925294E-2,3.944570550E-2
1.506003742E1,-3.471164854E-2,4.782963932E-2,-5.840907969E-2,8.309147689E-2
1.507000042E1,1.433613938E-2,1.415552437E-2,-2.647798318E-2,3.327141951E-2
1.507996262E1,-1.048003770E-2,2.029568553E-2,-1.412574012E-2,2.685670448E-2
1.508992463E1,1.464750362E-3,1.072028518E-2,-1.886077881E-2,2.174394134E-2
1.509988662E1,-1.295781361E-2,6.227284670E-3,4.968963861E-3,1.521100292E-2
1.510984863E1,4.417146589E-3,-7.689673305E-3,-1.637922049E-2,1.862581873E-2
1.511981062E1,-7.750493484E-3,6.379896998E-3,-1.126758456E-2,1.509078185E-2
1.512977362E1,4.817932108E-3,2.748600662E-2,-1.903319858E-2,3.377803543E-2
1.513973563E1,-1.941859861E-2,4.994516194E-2,-3.981021959E-2,6.675668324E-2
1.514969762E1,2.017685001E-2,9.234507680E-3,2.413204372E-2,3.278318079E-2
1.515965963E1,-3.679842845E-2,-6.411121130E-2,-7.787906528E-3,7.433050006E-2
1.516962162E1,2.898355164E-2,-6.426791668E-2,1.837955296E-2,7.285752773E-2
1.517958462E1,-1.128572007E-3,-1.667859793E-2,1.966886401E-2,2.581304932E-2
1.518954663E1,2.649358337E-2,2.687731147E-2,2.272527672E-2,4.405380839E-2
1.519950862E1,-2.415265515E-2,4.752441466E-2,5.990362801E-2,8.018955910E-2
1.520947063E1,2.343740820E-2,2.252347469E-2,-3.089493334E-2,4.484546713E-2
1.521943262E1,-2.222895318E-2,-2.448872387E-2,8.829295635E-4,3.308479290E-2
1.522939562E1,1.920159839E-2,-1.086880445E-2,-6.148866199E-2,6.532754277E-2
1.523935763E1,-2.723467228E-2,3.702807784E-2,-4.631637990E-2,6.525345179E-2
1.524931962E1,1.492631074E-2,5.035095870E-2,-5.381254692E-2,7.519178147E-2
1.525928162E1,-3.287047454E-2,2.775614798E-2,-5.606134951E-2,7.066644717E-2
1.526924362E1,-1.185303703E-3,5.619758964E-2,-2.118555866E-2,6.006997521E-2
1.527920662E1,-1.308798725E-3,3.256022036E-2,-3.180826843E-2,4.553731266E-2
1.528916863E1,1.821426405E-2,-6.947076917E-3,4.269695342E-2,4.693667142E-2
1.529913062E1,1.555514680E-2,-1.622076094E-2,1.399311796E-3,2.251740995E-2
1.530909262E1,2.079461748E-3,-2.325379193E-2,1.884499133E-2,3.000327813E-2
1.531905462E1,-9.490295956E-3,6.983329654E-3,1.736096799E-2,2.098179735E-2
1.532901762E1,8.049642518E-3,3.213454306E-2,-4.093050957E-2,5.265673951E-2
1.533897963E1,4.497120967E-3,2.495591640E-3,1.890404820E-3,5.479571609E-3
1.534894162E1,-1.067071175E-3,-1.202129066E-2,-1.972737271E-2,2.312616060E-2
1.535890362E1,8.398378682E-3,-1.426545203E-2,1.482733291E-2,2.222353903E-2
1.536886563E1,4.004095620E-3,5.939601660E-3,-2.787988968E-3,7.686646349E-3
1.537882862E1,1.607454401E-2,1.297847986E-2,-1.063725471E-2,2.323753628E-2
1.538879063E1,-6.094415830E-3,-9.928572178E-3,2.568327349E-2,2.820193232E-2
1.539875262E1,-1.584957238E-2,-3.762624800E-2,-4.740958996E-3,4.110255680E-2
1.540871462E1,-1.708391961E-4,-6.351245642E-3,2.913141310E-2,2.981621600E-2
1.541867663E1,-8.169053625E-3,5.157302678E-2,-1.072320879E-2,5.330570077E-2
1.542863962E1,-2.310426766E-3,5.621337712E-2,-1.342235662E-2,5.783979163E-2
1.543860163E1,2.771854308E-3,2.986874700E-2,-2.345442452E-2,3.807801535E-2
1.544856362E1,3.952352330E-3,3.316540718E-2,-3.835656524E-2,5.086050943E-2
1.545852562E1,-1.956368722E-3,2.358065128E-2,-3.123816490E-2,3.918797571E-2
1.546848763E1,2.313446305E-3,-3.929211974E-2,-4.792969979E-2,6.201998734E-2
1.547845062E1,1.992353766E-2,-4.868391752E-3,5.906857252E-3,2.134337260E-2
1.548841262E1,1.191411302E-3,6.129636168E-2,-4.233738620E-2,7.450582317E-2
1.549837462E1,1.448694730E-2,3.555399477E-2,1.552260339E-2,4.141146463E-2
1.550833662E1,5.295882602E-3,-1.668736875E-2,2.500817589E-3,1.768526893E-2
1.551829863E1,1.517755372E-2,-4.197716117E-2,-2.055179358E-2,4.914078159E-2
1.552826062E1,2.930702143E-3,-3.717191935E-2,2.015177093E-2,4.238436592E-2
1.553822362E1,-5.363175832E-3,-1.652072310E-2,8.013082802E-2,8.199175292E-2
1.554818562E1,-1.300771594E-2,1.687038660E-2,-3.399044931E-2,4.011435232E-2
1.555814762E1,-3.874760235E-2,6.249504089E-3,5.942876101E-2,7.121945397E-2
1.556810963E1,-1.435395055E-2,-4.534515738E-3,2.225450277E-3,1.521677884E-2
1.557807162E1,-6.593005168E-3,-6.030818224E-3,4.462521896E-3,9.987621702E-3
1.558803462E1,-6.522706104E-4,-2.564822674E-2,-1.954176016E-3,2.573083356E-2
1.559799663E1,-3.784354515E-3,2.643526196E-3,-5.867976923E-2,5.886106426E-2
1.560795862E1,9.318314726E-4,2.973776937E-2,-1.781942625E-2,3.468047273E-2
1.561792063E1,6.422010656E-3,1.882043302E-2,-3.058386147E-2,3.648045370E-2
1.562788262E1,-7.122794883E-3,2.062663794E-2,-3.361567933E-2,4.007750362E-2
1.563784562E1,-2.797668851E-2,4.473821640E-2,-2.021440923E-2,5.650509222E-2
1.564780763E1,2.612757508E-2,5.761612415E-2,-2.687672675E-2,6.873591770E-2
1.565776962E1,-1.177323167E-3,5.372772574E-2,-4.099249005E-2,6.759022743E-2
1.566773163E1,1.521264615E-2,3.982129276E-2,-2.673178889E-2,5.031648335E-2
1.567769362E1,2.310990474E-2,1.122899294E-2,2.389870327E-2,3.508997004E-2
1.568765662E1,-2.505468410E-2,-1.900637448E-2,-2.235803504E-2,3.858576417E-2
1.569761863E1,2.546202946E-2,-4.356409550E-2,3.547323011E-2,6.168059188E-2
1.570758062E1,7.876245165E-3,-3.922604620E-2,-3.766337782E-4,4.001074595E-2
1.571754263E1,6.390978934E-1,2.487288594E-2,-2.748014771E0,2.821462379E0
1.572750462E1,-3.339944564E-1,-1.929013985E-1,-2.144947566E0,2.179349286E0
1.573746762E1,-9.370491989E-2,2.873146355E-2,-1.213125998E0,1.217078796E0
1.574742963E1,4.110249993E-3,-3.747480512E-3,1.159040934E-1,1.160374794E-1
1.575739162E1,-4.061126256E-1,-2.216732079E-1,5.313125858E-1,7.045278842E-1