"Time (s)","Linear Acceleration x (m/s^2)","Linear Acceleration y (m/s^2)","Linear Acceleration z (m/s^2)","Absolute acceleration (m/s^2)"
1.126250718E-4,-2.503096542E-1,8.187856078E-3,9.716486357E-2,2.686316710E-1
1.007462502E-2,8.449939247E-2,8.229956031E-3,4.488112235E-1,4.567706140E-1
2.003762498E-2,-3.341147446E-2,2.076814055E-2,-3.260595290E-1,3.284242054E-1
2.999962505E-2,5.696489051E-2,-9.253218770E-3,-9.260827459E-2,1.091188037E-1
3.996162501E-2,-5.284065288E-2,-2.286378264E-2,2.706698783E-1,2.767256226E-1
4.992462508E-2,-1.575158127E-2,-7.325391769E-3,-2.828656353E-2,3.319492964E-2
5.988662504E-2,2.498821313E-2,8.548044562E-3,-1.026309869E-1,1.059745221E-1
6.984862499E-2,-5.118100294E-2,1.050042987E-2,9.457871318E-2,1.080503914E-1
7.981162507E-2,1.082989306E-2,8.068572879E-3,5.633675337E-2,5.793287695E-2
8.977362502E-2,-2.694173134E-3,-6.578117609E-4,-3.641572818E-3,4.577372366E-3
9.973562497E-2,-5.964434054E-4,1.123542488E-2,4.406110883E-2,4.547495825E-2
1.096986250E-1,-1.901330891E-2,1.980451941E-2,6.348263562E-2,6.916480268E-2
1.196606250E-1,-1.245976788E-2,2.997399688E-2,8.911734067E-2,9.484506688E-2
1.296226251E-1,-4.131701966E-3,2.270532310E-2,7.451859735E-2,7.801040962E-2
1.395846250E-1,-2.362444145E-2,1.016713858E-2,3.179591618E-2,4.089578495E-2
1.495476250E-1,-8.207334615E-3,-6.690968871E-3,-5.954512060E-2,6.047934187E-2
1.595096251E-1,2.918256710E-2,5.546668768E-3,-1.412249491E-1,1.443151898E-1
1.694716250E-1,-9.411280886E-3,5.449604988E-3,-1.778003063E-1,1.781325892E-1
1.794346251E-1,6.709812437E-3,7.882046700E-3,-2.272852924E-1,2.275208834E-1
1.893966250E-1,1.695748727E-2,-7.067529559E-3,-2.249780542E-1,2.257268952E-1
1.993586250E-1,3.882939485E-3,-2.669312418E-2,-1.738757282E-1,1.759555881E-1
2.093216251E-1,3.033461477E-2,-1.552669644E-2,-1.407577566E-1,1.448240767E-1
2.192836250E-1,-1.643251694E-2,4.975980520E-4,-7.969235994E-2,8.137043351E-2
2.292456250E-1,-2.351272765E-2,-3.689593077E-3,8.886597618E-1,8.889784214E-1
2.392076250E-1,-1.649121842E-1,-1.433912694E-2,2.617166948E-1,3.096728393E-1
2.491706250E-1,1.506181174E-1,2.283980906E-2,-6.484146275E-1,6.660698187E-1
2.591326251E-1,-2.873378417E-2,-3.184978366E-3,4.231904787E-1,4.241767977E-1
2.690946250E-1,-2.167347683E-2,3.548967540E-2,2.247962058E-2,4.727145015E-2
2.790576250E-1,2.381179446E-2,5.467614412E-2,-3.037914314E-1,3.095895930E-1
2.890196251E-1,-3.898894618E-2,3.006112039E-2,2.798827513E-1,2.841798082E-1
2.989816250E-1,5.519339887E-2,3.722805262E-2,-2.270240680E-1,2.365843753E-1
3.089446251E-1,-5.566517781E-2,1.944725454E-2,-1.169954762E-3,5.897606738E-2
3.189066250E-1,1.526947377E-2,-3.479093313E-4,5.606843926E-2,5.811151135E-2
3.288686250E-1,2.011890776E-2,3.434654474E-2,-1.456909794E-1,1.510308480E-1
3.388316251E-1,-1.288934637E-2,5.534331143E-2,-5.794583403E-2,8.115871519E-2
3.487932084E-1,4.128773790E-4,3.739762187E-2,7.098636746E-2,8.023600785E-2
3.587552083E-1,-1.480007483E-2,-1.737792492E-2,-4.665617622E-2,5.194067067E-2
3.687172084E-1,2.862280127E-2,-5.896624625E-2,2.213171124E-3,6.558339024E-2
3.786802083E-1,-2.578734479E-2,-3.487922609E-2,6.137719944E-2,7.515788831E-2
3.886422084E-1,-3.764752639E-3,2.304855466E-2,5.552442893E-3,2.400497566E-2
3.986042084E-1,-2.232763865E-3,3.292508662E-2,5.573675595E-2,6.477370244E-2
4.085672083E-1,-2.203483933E-2,6.555898190E-3,2.898808323E-2,3.699760688E-2
4.185292084E-1,-1.937611951E-3,-2.011559129E-2,1.635283493E-2,2.599627979E-2
4.284912084E-1,-8.406797759E-3,-3.451085150E-2,1.699427448E-2,3.937611567E-2
4.384542083E-1,5.947732944E-3,-5.803361535E-3,-1.406255364E-3,8.428053537E-3
4.484162084E-1,8.668465228E-3,3.188603640E-2,-8.585978374E-3,3.414060092E-2
4.583782083E-1,-4.025657228E-3,3.695089459E-2,-2.268719673E-3,3.723871126E-2
4.683412084E-1,-1.486795278E-2,3.300928652E-2,3.003721990E-2,4.704150929E-2
4.783032084E-1,2.615301961E-2,2.439282954E-2,3.467983603E-2,4.981647915E-2
4.882652083E-1,1.686721175E-2,3.340748191E-2,1.464318216E-2,4.018688173E-2
4.982272084E-1,-2.019498094E-2,-2.406070769E-2,2.470967554E-2,3.996652318E-2
5.081902083E-1,-5.577654443E-3,8.713520765E-3,3.342560828E-2,3.499009806E-2
5.181522084E-1,8.336192630E-3,3.730114281E-2,-2.524878882E-2,4.580795454E-2
5.281142084E-1,1.433043378E-2,3.989906073E-2,-1.317705861E-1,1.384224828E-1
5.380772083E-1,2.036055765E-2,6.203895807E-3,-1.745312011E-1,1.758242896E-1
5.480392084E-1,-1.078068052E-2,-1.557055056E-2,-1.858963611E-1,1.868585620E-1
5.580012084E-1,4.250382171E-3,3.163928390E-3,-1.671805932E-1,1.672645418E-1
5.679642083E-1,-2.474427461E-3,-1.588396132E-2,-1.219067719E-1,1.229621245E-1
5.779262084E-1,-7.813570322E-4,-8.017117381E-3,2.044625864E-1,2.046211962E-1
5.878882083E-1,-5.063553995E-2,-4.502940774E-3,2.970045682E-1,3.013236597E-1
5.978512084E-1,-2.850915515E-2,5.451943874E-3,1.338742682E-1,1.369847265E-1
6.078132084E-1,1.714925311E-2,1.934317410E-2,-1.646108881E-1,1.666283282E-1
6.177752083E-1,1.996423063E-2,1.098340988E-2,-5.238520503E-2,5.712631183E-2
6.277372084E-1,-2.076561894E-2,-2.927700877E-3,4.387224376E-2,4.862670187E-2
6.377002083E-1,2.165288367E-2,1.590325713E-2,5.976950750E-3,2.752244355E-2
6.476622084E-1,3.474570857E-3,2.982138455E-2,-9.323502302E-2,9.794976844E-2
6.576242084E-1,-8.493925841E-3,4.195494175E-2,3.118378580E-2,5.296029088E-2
6.675872083E-1,9.828635040E-3,3.345542908E-2,-4.816819310E-2,5.946463342E-2
6.775492084E-1,8.839468877E-3,8.173822761E-3,-7.987881303E-3,1.444831604E-2
6.875112084E-1,4.451923817E-3,6.960525513E-3,-1.314571023E-2,1.552669439E-2
6.974742083E-1,8.873419273E-3,2.297955751E-4,-1.651019812E-2,1.874505315E-2
7.074362084E-1,-7.399669681E-3,-8.895369172E-3,2.711236954E-2,2.947818322E-2
7.173982083E-1,-1.319909805E-2,2.973367631E-2,5.136778951E-3,3.293469591E-2
7.273612084E-1,3.454923299E-3,-6.566423178E-4,2.852213323E-2,2.873812378E-2
7.373232084E-1,-1.801126974E-2,-1.128688037E-2,2.945951499E-2,3.632715967E-2
7.472852083E-1,-9.672847856E-4,2.181011438E-3,1.888943017E-2,1.903951215E-2
7.572472084E-1,1.542838099E-3,4.415232539E-3,4.978904128E-3,6.831113679E-3
7.672102083E-1,1.966349645E-2,-1.460283637E-2,1.078570090E-2,2.676242266E-2
7.771722084E-1,-1.093920859E-2,-2.478751659E-2,-4.715194702E-3,2.750127860E-2
7.871342084E-1,2.275900785E-2,-6.228454113E-3,1.313796267E-3,2.363243829E-2
7.970972083E-1,1.147202241E-2,2.729597211E-2,-8.183178306E-3,3.071875321E-2
8.070592084E-1,8.975562821E-3,5.663437665E-2,-3.555348314E-2,6.746898183E-2
8.170212083E-1,1.373183421E-2,4.062060714E-2,-2.481857993E-2,4.954350517E-2
8.269842083E-1,1.427666224E-3,1.383802056E-2,-5.193211891E-2,5.376312880E-2
8.369462084E-1,1.301835056E-2,-5.616250634E-3,-4.452135779E-2,4.672441569E-2
8.469082083E-1,-1.806426013E-2,1.548810482E-2,-2.637920178E-2,3.552550030E-2
8.568702084E-1,-2.935594618E-3,3.749936342E-2,-4.744145729E-2,6.054347068E-2
8.668332084E-1,-1.636435577E-2,5.917966962E-3,2.959275842E-3,1.765139615E-2
8.767952083E-1,-2.004454305E-2,2.493311226E-2,1.853055730E-3,3.204493109E-2
8.867572084E-1,2.287428936E-2,1.670841873E-2,5.026193485E-3,2.876920213E-2
8.967202083E-1,-3.295272842E-2,-1.487063885E-2,1.841814458E-2,4.057396036E-2
9.066822084E-1,-1.000516613E-2,1.444846988E-3,2.246960722E-2,2.463887540E-2
9.166442084E-1,1.080018647E-2,1.598628759E-3,8.202401027E-3,1.365573228E-2
9.266072083E-1,4.981937371E-3,-1.232826948E-2,2.609846234E-2,2.929053883E-2
9.365692084E-1,1.893676520E-2,-1.831932664E-2,-1.098180190E-3,2.637052909E-2
9.465312083E-1,9.375146921E-3,5.016326308E-3,9.753740430E-3,1.442887251E-2
9.564942083E-1,4.783780714E-3,1.189148247E-2,1.817314625E-3,1.294583121E-2
9.664562084E-1,5.858836994E-3,2.355901659E-2,3.436993361E-3,2.451868995E-2
9.764182083E-1,2.145463108E-2,2.447644472E-3,-1.820479430E-2,2.824370184E-2
9.863812084E-1,1.150374355E-2,-2.405427575E-2,1.017934464E-2,2.854055632E-2
9.963432084E-1,-5.305151353E-3,-1.478351533E-2,-3.458116427E-3,1.608277108E-2
1.006305208E0,-5.990568367E-3,2.846541524E-2,-4.207071662E-3,2.939160128E-2
1.016267208E0,-1.441651576E-2,5.480478287E-2,-2.476829387E-2,6.184552153E-2
1.026230208E0,-1.480719199E-2,3.534700334E-2,-1.596406817E-2,4.151523880E-2
1.036192208E0,-1.959635854E-2,-5.815055966E-3,-2.348241806E-2,3.113287815E-2
1.046154208E0,-2.521839243E-2,-4.014113545E-3,-1.741008461E-2,3.090617204E-2
1.056117208E0,7.132748854E-3,4.516974092E-3,-3.444660522E-2,3.546614967E-2
1.066079208E0,-1.507002433E-2,-1.464727521E-2,2.423670888E-3,2.115472725E-2
1.076041208E0,1.398649416E-3,1.558341444E-2,-2.591661394E-2,3.027325393E-2
1.086004208E0,9.939435208E-3,4.655903935E-2,-4.822783470E-3,4.785181040E-2
1.095966208E0,1.894484167E-3,4.970133305E-2,-2.202127196E-2,5.439437467E-2
1.105928208E0,1.427121245E-2,2.664810061E-2,-1.788151637E-3,3.028178095E-2
1.115890208E0,6.558301030E-3,-1.047177851E-2,-1.739371240E-2,2.133566706E-2
1.125853208E0,2.834084671E-2,-3.202870846E-2,-4.478236288E-4,4.276964231E-2
1.135815208E0,2.777987489E-2,-1.183067143E-2,5.225656629E-3,3.064300446E-2
1.145777208E0,1.386504566E-2,1.555651724E-2,-3.967920542E-3,2.121294683E-2
1.155740208E0,1.619689242E-2,3.980316639E-2,5.504568815E-3,4.332356930E-2
1.165702208E0,-1.203970025E-2,2.557922959E-2,-1.285334945E-2,3.105575568E-2
1.175664208E0,1.703753017E-2,-1.618450820E-2,-6.992539018E-4,2.350967240E-2
1.185627208E0,-5.827230052E-3,-1.664059103E-2,2.689134479E-3,1.783528312E-2
1.195589208E0,-1.179792702E-2,6.854690909E-3,2.617140636E-3,1.389342631E-2
1.205551208E0,-2.154514415E-2,5.191216528E-2,-1.236284114E-2,5.754916144E-2
1.215514208E0,-1.860526005E-2,4.338750958E-2,-1.666171409E-2,5.006240512E-2
1.225476208E0,-1.868985282E-2,5.677646399E-3,-2.146395922E-2,2.902150603E-2
1.235438208E0,-1.154863921E-2,-6.893867254E-3,-1.889235377E-3,1.358181444E-2
1.245400208E0,8.589326818E-3,2.110260129E-2,-2.620714746E-2,3.472622776E-2
1.255363208E0,-1.012929613E-3,2.679428101E-2,-5.455452204E-3,2.736277544E-2
1.265325208E0,1.229067371E-2,2.575640023E-2,-3.343437910E-3,2.873380222E-2
1.275287208E0,2.111058639E-2,3.010497451E-2,-1.737617075E-2,4.066814058E-2
1.285250208E0,2.266852219E-2,1.972850561E-3,1.810882688E-3,2.282615459E-2
1.295212208E0,5.004736944E-3,-7.456954122E-3,2.096738443E-3,9.222248573E-3
1.305174208E0,2.234576502E-2,1.227915287E-3,1.088802718E-2,2.488754962E-2
1.315137208E0,2.136134972E-2,-3.715905547E-3,8.247497678E-3,2.319776786E-2
1.325099208E0,-3.151553306E-3,-4.474874139E-3,2.337197877E-2,2.400429500E-2
1.335061208E0,-1.426690469E-2,1.617983043E-2,1.772064485E-2,2.791688980E-2
1.345024708E0,-4.563066596E-3,3.752743006E-3,2.119264841E-2,2.200075007E-2
1.354986708E0,-2.078027810E-2,2.066990733E-2,-1.386433303E-2,3.242352167E-2
1.364948708E0,-1.239088951E-2,2.066698372E-2,-6.327198967E-3,2.491368712E-2
1.374910708E0,4.216719568E-3,1.558049083E-2,-3.151883125E-2,3.541142671E-2
1.384873708E0,-1.483281010E-2,5.405750871E-3,-1.526656844E-2,2.196138679E-2
1.394835708E0,-9.809910245E-3,1.139505386E-2,-2.204049468E-2,2.668079829E-2
1.404797708E0,-1.272895450E-2,8.406541944E-3,-1.628683448E-2,2.231495479E-2
1.414760708E0,-2.076682950E-2,4.718001366E-2,-1.005136371E-2,5.251899474E-2
1.424722708E0,3.854881986E-3,3.985520661E-2,-4.753786325E-4,4.004402070E-2
1.434684708E0,-2.759556882E-3,4.685958624E-3,1.767671764E-2,1.849431558E-2
1.444647708E0,1.650225869E-3,-2.193875313E-3,9.367751107E-3,9.761715787E-3
1.454609708E0,1.299082297E-2,-5.042054057E-3,1.961090349E-2,2.405766668E-2
1.464571708E0,7.175122895E-3,1.096937656E-2,1.953255080E-2,2.352297072E-2
1.474534708E0,1.036564698E-2,4.828045964E-3,1.240296766E-2,1.686980355E-2
1.484496708E0,1.141178238E-2,2.130140662E-3,6.753387898E-3,1.343035832E-2
1.494458708E0,5.511964629E-3,-2.507870793E-3,-3.916538134E-3,7.211826464E-3
1.504420708E0,-1.374606396E-2,3.484355807E-3,-4.587286860E-3,1.490430175E-2
1.514383708E0,-1.064337145E-2,3.042364776E-2,-2.248729505E-2,3.930086688E-2
1.524345708E0,1.014861935E-3,2.338126123E-2,-1.369710267E-2,2.711685717E-2
1.534307708E0,-9.578693979E-3,2.008869410E-2,-9.525187388E-3,2.420818464E-2
1.544270708E0,-1.365040717E-2,8.111257553E-3,-2.146512866E-2,2.669977272E-2
1.554232708E0,-3.319339159E-2,2.966994166E-2,-1.253467619E-2,4.625175446E-2
1.564194708E0,2.640743287E-2,2.144232452E-2,-8.257949576E-3,3.500456432E-2
1.574157708E0,-8.231623401E-3,-1.822927952E-2,3.174453378E-3,2.025199767E-2
1.584119708E0,1.158057505E-2,-2.092075288E-2,-7.500808239E-3,2.506092065E-2
1.594081708E0,7.228300581E-3,1.589682519E-2,1.039693415E-2,2.032372063E-2
1.604044708E0,1.157247118E-2,4.973056912E-2,-4.323942885E-3,5.124205379E-2
1.614006708E0,4.637011033E-3,3.970493317E-2,6.241975799E-3,4.045918747E-2
1.623968708E0,7.529254030E-3,1.292527020E-2,-1.492859937E-2,2.113327602E-2
1.633930708E0,-2.335011567E-2,-2.075878501E-2,1.627338588E-2,3.522751971E-2
1.643893708E0,1.564402448E-2,-2.329355299E-2,-5.586722195E-2,6.251777029E-2
1.653855708E0,-2.365886236E-2,-9.677726626E-3,1.397426069E-2,2.913211497E-2
1.663817708E0,1.733994543E-2,3.970961094E-2,-3.258477867E-2,5.421526269E-2
1.673780708E0,-1.385829396E-2,7.144361973E-2,1.157463647E-2,7.368999471E-2
1.683742708E0,-6.281289188E-3,1.277850509E-2,-3.115323409E-3,1.457566554E-2
1.693704708E0,-1.615234395E-2,-3.122705519E-2,2.020278789E-2,4.054848739E-2
1.703667708E0,-7.011725195E-4,-2.673873246E-2,-2.368122339E-3,2.685255034E-2
1.713629708E0,-1.383122317E-3,4.391843677E-3,1.641488850E-2,1.704845690E-2
1.723591708E0,6.102652182E-3,3.252513707E-2,-1.575312987E-3,3.313017531E-2
1.733554708E0,-1.095362106E-2,3.073705852E-2,-1.399311796E-3,3.266047541E-2
1.743516708E0,2.183542186E-3,1.936071575E-2,-5.964159966E-5,1.948355019E-2
1.753478708E0,-4.420874189E-3,2.116341233E-2,-1.032208979E-2,2.395787319E-2
1.763440708E0,5.941561391E-3,-4.127549529E-3,-1.250836372E-2,1.444984359E-2
1.773403708E0,-2.103764238E-4,-1.310361028E-2,-2.889803611E-2,3.173082652E-2
1.783365708E0,1.260324393E-2,1.234581113E-2,-1.486946940E-2,2.307296969E-2
1.793327708E0,1.088950268E-2,2.567629337E-2,-1.139973164E-2,3.012983889E-2
1.803290708E0,-1.800668333E-4,1.580326974E-2,-1.075076379E-2,1.911425334E-2
1.813252708E0,-1.463676849E-4,1.895199537E-2,2.775088549E-3,1.915465136E-2
1.823214708E0,1.245817817E-3,6.237809658E-3,2.655220628E-3,6.892933189E-3
1.833177708E0,-8.700602073E-3,-1.411810219E-2,1.296554290E-2,2.105057217E-2
1.843139708E0,-1.216643408E-2,-2.740005255E-3,3.630390018E-4,1.247643957E-2
1.853101708E0,-7.221494056E-3,-2.594409585E-3,2.064293705E-2,2.202298317E-2
1.863064708E0,-5.052871406E-3,-4.542117119E-3,5.857082829E-3,8.970382190E-3
1.873026708E0,6.315655285E-3,7.575652599E-3,2.242641091E-2,2.449942694E-2
1.882988708E0,-5.768186878E-3,7.574483156E-3,-1.958890334E-3,9.720186536E-3
1.892950708E0,-9.452855503E-3,5.322135687E-3,-2.158353478E-4,1.085026222E-2
1.902913708E0,4.032756113E-3,5.617420077E-3,-2.066939570E-2,2.179546854E-2
1.912875708E0,6.762081063E-3,1.426135898E-3,-2.680838741E-2,2.768481966E-2
1.922837708E0,-3.635465219E-3,2.148617864E-2,-3.552132346E-2,4.167297565E-2
1.932800708E0,1.200713857E-2,3.630828559E-2,-1.715346493E-2,4.191305690E-2
1.942762708E0,-3.069482152E-3,1.371172071E-2,-2.885674015E-3,1.434434104E-2
1.952724708E0,-8.419807814E-4,1.611200273E-2,-6.539599076E-3,1.740896090E-2
1.962687708E0,3.425646108E-3,-2.447059751E-3,7.192075253E-3,8.333612609E-3
1.972649708E0,-1.132479591E-2,6.382820606E-3,3.323045745E-3,1.341767619E-2
1.982611708E0,2.857072907E-3,7.133603096E-3,1.720601678E-2,1.884404872E-2
1.992574708E0,-6.804834260E-4,-8.728723526E-3,1.834907435E-2,2.033081901E-2
2.002536708E0,2.775394614E-3,-2.160721600E-2,1.228902005E-2,2.501188942E-2
2.012498708E0,-6.135396590E-3,-1.518229544E-2,2.722390518E-3,1.659989748E-2
2.022460708E0,-1.146360333E-3,1.833920717E-2,9.734371528E-3,2.079419753E-2
2.032423708E0,1.990743955E-3,1.458938777E-2,-1.021398939E-2,1.792034811E-2
2.042385708E0,-4.634694988E-4,2.086929739E-2,3.806464300E-3,2.121866037E-2
2.052347708E0,-1.169644129E-2,5.740796328E-3,-1.909941830E-2,2.312036463E-2
2.062310708E0,6.841182928E-3,1.875845253E-2,-1.662670389E-2,2.598323705E-2
2.072272708E0,1.029603770E-2,2.205218911E-2,-3.654809453E-2,4.390980130E-2
2.082234708E0,1.281195299E-2,2.684456706E-2,-1.516957775E-2,3.339001361E-2
2.092197708E0,7.306995881E-3,1.442625046E-2,-1.031616949E-2,1.918156000E-2
2.102159708E0,-5.005307961E-5,5.448435545E-3,-2.654051185E-2,2.709403485E-2
2.112121708E0,1.273247654E-2,8.888937235E-3,-6.139064804E-3,1.669782263E-2
2.122084708E0,2.226358880E-2,5.906857252E-3,-4.655553102E-3,2.349962816E-2
2.132046708E0,-3.951415862E-3,-2.472787499E-3,3.686011657E-3,5.942646487E-3
2.142008708E0,-1.249556380E-2,1.579391420E-2,1.560029827E-2,2.547461769E-2
2.151970708E0,-6.891176621E-3,8.457412720E-3,2.146863699E-2,2.408149745E-2
2.161933708E0,-5.628324221E-3,-5.760092139E-3,1.379467808E-2,1.597341035E-2
2.171895708E0,1.087942994E-3,-5.766524076E-3,1.509049416E-2,1.619133823E-2
2.181857708E0,-1.155966669E-2,-1.011334419E-2,4.252022132E-3,1.593691679E-2
2.191820708E0,-5.647208900E-3,-6.928950548E-4,3.203031644E-3,6.529202373E-3
2.201782708E0,-1.390048984E-2,1.186809361E-2,9.830923676E-3,2.075385082E-2
2.211744708E0,1.065473698E-2,1.889352322E-2,-1.532438278E-2,2.655796203E-2
2.221707708E0,-2.729174201E-3,2.157914937E-2,-2.673412777E-2,3.446478880E-2
2.231669708E0,1.264099959E-2,4.210579991E-3,-3.446524322E-2,3.695100600E-2
2.241631708E0,1.959744575E-3,1.423212290E-2,-1.519698657E-2,2.091273109E-2
2.251594708E0,3.988408637E-3,2.515823007E-2,-1.878132977E-2,3.164778494E-2
2.261556708E0,-3.320583520E-3,1.108865976E-2,-9.881794453E-4,1.161727803E-2
2.271518708E0,-1.606855975E-3,1.183710337E-2,-4.574788436E-3,1.279170401E-2
2.281480708E0,-5.614843648E-3,9.442083836E-3,-6.531924605E-3,1.278066725E-2
2.291443708E0,2.167682071E-2,6.598582864E-3,3.443279117E-4,2.266151834E-2
2.301405708E0,2.593276687E-3,3.604223728E-3,1.113185607E-2,1.198472912E-2
2.311367708E0,3.905940056E-4,-3.280872703E-3,4.539778233E-3,5.614826424E-3
2.321330708E0,-9.510368351E-3,2.855780125E-3,9.935515746E-3,1.404695908E-2
2.331292708E0,3.292137729E-3,5.553685427E-3,-8.900924027E-4,6.517197030E-3
2.341254708E0,1.197203700E-3,-1.635466218E-3,4.115270376E-3,4.587319121E-3
2.351217958E0,-1.308550218E-2,2.021499395E-2,2.858557552E-4,2.408231844E-2
2.361179958E0,1.716619176E-3,1.826377809E-2,9.496389851E-3,2.065656776E-2
2.371141958E0,5.169473109E-3,4.190699458E-3,5.052067414E-3,8.355166026E-3
2.381104958E0,3.648310821E-3,-2.548801303E-3,-2.996113300E-3,5.365002780E-3
2.391066958E0,-1.424373967E-2,-8.387830853E-3,6.602164283E-3,1.779967414E-2
2.401028958E0,5.401740046E-3,2.798886716E-2,-5.409259200E-3,2.901405807E-2
2.410990958E0,9.005625732E-5,3.712221801E-2,-1.410867356E-2,3.971299346E-2
2.420953958E0,2.313482850E-3,3.038564086E-2,-1.140850246E-2,3.253910419E-2
2.430915958E0,2.390752891E-3,1.541969240E-2,-1.952451088E-2,2.499378199E-2
2.440877958E0,4.849593868E-3,-1.451395869E-2,-3.727015257E-3,1.575005398E-2
2.450840958E0,-5.808400190E-3,3.152818680E-3,-1.529931284E-2,1.666573587E-2
2.460802958E0,8.268163931E-3,2.067107677E-2,-4.445126429E-3,2.270275531E-2
2.470764958E0,-2.281600907E-2,2.127509415E-2,1.703586280E-2,3.554462719E-2
2.480727958E0,-3.068924840E-3,2.202529192E-2,1.042383134E-2,2.455988688E-2
2.490689958E0,5.623102840E-3,4.370208979E-3,-1.081734896E-3,7.203343838E-3
2.500651958E0,7.007485963E-3,-1.554014504E-2,-5.975123495E-4,1.705749068E-2
2.510614958E0,-9.524748847E-4,-4.314660430E-3,7.357624546E-3,8.582432172E-3
2.520576958E0,2.061207471E-3,4.062645435E-3,9.377252832E-3,1.042528344E-2
2.530538958E0,3.920603776E-4,1.977996111E-2,-5.160825625E-3,2.044589675E-2
2.540500958E0,-1.233817320E-3,1.004668593E-2,1.614474714E-2,1.905547332E-2
2.550463958E0,-1.425592289E-2,2.486762345E-2,4.016306251E-4,2.866690323E-2
2.560425958E0,-7.420980041E-3,1.723759174E-2,-2.105531193E-2,2.820517106E-2
2.570387958E0,-1.510388793E-2,1.993198872E-2,6.029721871E-3,2.572487416E-2
2.580350958E0,-7.656746171E-4,1.798486590E-2,-1.984603465E-2,2.679378193E-2
2.590312958E0,1.176343302E-2,9.751401544E-3,-1.923850894E-2,2.456803644E-2
2.600274958E0,-5.343806930E-4,2.667090476E-2,-3.681121923E-2,4.546084672E-2
2.610237958E0,1.216323182E-2,2.577277243E-2,-1.720711313E-2,3.329061053E-2
2.620199958E0,-1.329128306E-2,2.159025908E-2,-1.254527427E-2,2.828747777E-2
2.630161958E0,1.009595786E-2,5.426800847E-3,5.980459079E-3,1.292843468E-2
2.640124958E0,-7.465706673E-5,3.484355807E-3,2.186200842E-3,4.114095671E-3
2.650086958E0,4.929248476E-4,3.502482176E-4,1.866840541E-2,1.867819610E-2
2.660048958E0,1.127019754E-2,-2.467525005E-4,-7.705972418E-3,1.365504486E-2
2.670010958E0,-9.754233789E-3,1.399238706E-3,3.705965281E-2,3.834737034E-2
2.679973958E0,1.263958347E-2,-1.417248130E-2,1.062848389E-2,2.176196145E-2
2.689935958E0,-2.424902915E-2,-4.297118783E-3,2.207682051E-2,3.307365489E-2
2.699897958E0,-1.915132147E-2,1.201076567E-2,2.428348660E-3,2.273606130E-2
2.709860958E0,6.762167858E-4,8.561493158E-3,1.376200676E-2,1.622187610E-2
2.719822958E0,-4.902460920E-3,-4.019376040E-3,-7.087994814E-3,9.509425708E-3
2.729784958E0,-1.736361295E-2,4.954345822E-3,-1.596004821E-2,2.409904015E-2
2.739747958E0,-1.000053861E-2,1.498115122E-2,-2.012209632E-2,2.700637748E-2
2.749709958E0,1.317674615E-3,1.618041515E-2,-1.400240041E-2,2.143850084E-2
2.759671958E0,-1.247825056E-2,1.558458388E-2,-3.111478865E-2,3.696912312E-2
2.769634958E0,7.258934509E-3,1.259022474E-2,-1.434373163E-2,2.041931748E-2
2.779596958E0,3.831684985E-3,1.932504773E-2,-1.028868757E-2,2.222602915E-2
2.789558958E0,6.400663750E-3,2.247260392E-2,-1.559335470E-2,2.809162035E-2
2.799520958E0,8.205438838E-3,1.439993799E-2,-3.626443148E-3,1.696580474E-2
2.809483958E0,8.890869557E-3,1.904847443E-2,-1.455225796E-4,2.102172963E-2
2.819445958E0,1.010564231E-2,-2.354673743E-3,6.092798710E-3,1.203290036E-2
2.829407958E0,5.294973543E-4,-2.355258465E-3,9.102945328E-3,9.417601793E-3
2.839370958E0,6.570379185E-3,1.882803440E-4,1.075419903E-2,1.260389340E-2
2.849332958E0,1.268381674E-2,-2.210832238E-3,2.884504572E-3,1.319421664E-2
2.859294958E0,-3.379238402E-3,3.329404593E-3,8.691959158E-3,9.902239197E-3
2.869257958E0,4.596194727E-3,3.325896263E-3,-7.105463371E-3,9.092535490E-3
2.879219958E0,-1.428493056E-2,4.076678753E-3,7.387299165E-3,1.659068232E-2
2.889181958E0,-6.202826863E-3,2.158850491E-2,-5.603313670E-3,2.315028573E-2
2.899144958E0,-1.806932162E-2,2.113826931E-2,-1.352979921E-2,3.092543096E-2
2.909106958E0,-2.437083852E-2,1.425726593E-2,-1.134009004E-2,3.042704462E-2
2.919068958E0,-8.389132773E-3,4.977734685E-3,-2.468752921E-2,2.654485806E-2
2.929031958E0,-9.895069459E-3,1.545302153E-2,-1.311121166E-2,2.255243102E-2
2.938993958E0,-3.383116750E-3,1.649967313E-2,-1.593022741E-2,2.318311536E-2
2.948955958E0,1.081998934E-2,6.471698284E-3,-1.236225642E-2,1.765730534E-2
2.958917958E0,-5.322880293E-3,1.021567047E-2,-3.697852269E-3,1.209822669E-2
2.968880958E0,9.982325449E-3,3.179715872E-3,-5.198686346E-3,1.169545870E-2
2.978842958E0,1.012341237E-2,1.171080351E-2,-7.715327963E-3,1.729603083E-2
2.988804958E0,2.300234338E-2,1.380761504E-2,1.276615284E-2,2.971081777E-2
2.998767958E0,1.570525579E-3,6.177583337E-3,2.234148011E-3,6.754295212E-3
3.008729958E0,6.383642871E-3,-1.283873141E-2,7.259318233E-3,1.607114251E-2
3.018691958E0,-7.144292537E-4,5.563040972E-3,2.900730595E-3,6.314433624E-3
3.028654958E0,-1.003809327E-2,-2.075761557E-3,2.368122339E-3,1.052046130E-2
3.038616958E0,-2.430865704E-3,1.049750626E-2,-1.468937516E-2,1.821769712E-2
3.048578958E0,4.417297337E-4,1.543664932E-2,-1.693295181E-2,2.291746331E-2
3.058540958E0,-8.326768563E-3,1.857835829E-2,-1.076640509E-2,2.303054385E-2
3.068503958E0,4.868537933E-3,6.907900572E-3,-1.173236512E-2,1.445925804E-2
3.078465958E0,-1.038602544E-3,2.577043355E-2,-1.760070384E-2,3.122464917E-2
3.088427958E0,-6.697441922E-3,2.442966700E-2,-2.158967435E-2,3.328330507E-2
3.098390958E0,3.311588857E-3,1.918763816E-2,-1.345385849E-2,2.366724292E-2
3.108352958E0,1.227060132E-2,3.167436719E-3,-6.065974608E-3,1.404978149E-2
3.118314958E0,1.881709828E-2,9.459040761E-3,-4.932053313E-3,2.163057534E-2
3.128277958E0,-1.246091905E-3,2.128035665E-2,-1.371522903E-2,2.534785655E-2
3.138239958E0,3.763468992E-3,7.355797291E-3,-1.471685708E-2,1.687771711E-2
3.148201958E0,1.174549394E-2,1.695692539E-4,-2.265796065E-3,1.196324427E-2
3.158164958E0,-4.451179211E-3,1.258964002E-2,-2.349995971E-3,1.355855867E-2
3.168126958E0,2.387664830E-3,8.246912956E-3,1.009229422E-2,1.325016676E-2
3.178088958E0,-3.233126532E-3,2.556402683E-3,1.326733232E-2,1.389281860E-2
3.188050958E0,-1.235193243E-2,3.304846287E-3,1.895192228E-2,2.286192472E-2
3.198013958E0,-2.678403924E-3,-1.486362219E-3,-1.697446704E-3,3.502063040E-3
3.207975958E0,-4.909445602E-3,2.081433356E-2,1.077057123E-2,2.394460988E-2
3.217937958E0,-7.883211575E-3,4.198300838E-3,4.408800602E-4,8.942322399E-3
3.227900958E0,-1.281184335E-2,1.602838755E-2,-6.502030715E-3,2.152507702E-2
3.237862958E0,-9.797160574E-3,1.108865976E-2,9.953203574E-3,1.783280662E-2
3.247824958E0,-8.130187914E-4,1.124068737E-2,-1.133183084E-2,1.598200370E-2
3.257787958E0,9.912857786E-4,1.558750749E-2,-8.120101467E-3,1.760366680E-2
3.267749958E0,1.952837552E-3,2.128444970E-2,-5.560702085E-3,2.208535218E-2
3.277711958E0,3.671325096E-3,1.141201079E-2,-1.150563933E-2,1.661602704E-2
3.287674958E0,-4.616564051E-3,3.930498362E-3,7.331677526E-4,6.107292032E-3
3.297636958E0,1.600549204E-2,-6.547127366E-3,1.045072854E-2,2.020540470E-2
3.307598958E0,-1.575842891E-3,1.066298246E-2,6.476376057E-3,1.257481303E-2
3.317561958E0,3.040113598E-3,1.125998318E-2,1.339597106E-2,1.776180038E-2
3.327523958E0,7.115695998E-3,1.440169215E-2,-6.328953132E-3,1.726550069E-2
3.337485958E0,6.518133399E-3,3.041487694E-2,1.203941703E-3,3.112876929E-2
3.347448083E0,1.676478954E-3,1.020689964E-2,-1.192831993E-3,1.041221543E-2
3.357411083E0,2.551651821E-3,9.453193545E-3,-1.383283116E-2,1.694759609E-2
3.367373083E0,-4.440900902E-3,5.413936973E-3,-1.402688563E-2,1.567755832E-2
3.377335083E0,-1.165359673E-2,-4.163217545E-3,-1.485850587E-3,1.246380556E-2
3.387298083E0,-8.508521039E-3,1.769250512E-2,4.484814405E-3,2.013785560E-2
3.397260083E0,-3.495958876E-3,1.605236113E-2,-1.146127358E-3,1.646856503E-2
3.407222083E0,1.221046636E-2,7.376847267E-3,-1.087070480E-3,1.430716906E-2
3.417185083E0,1.178122591E-4,-5.942525268E-3,-5.020492449E-3,7.780284745E-3
3.427147083E0,5.859883097E-3,1.239609718E-3,-1.291474521E-2,1.423606357E-2
3.437109083E0,-1.970421683E-2,5.137363672E-3,-7.018997669E-3,2.153868600E-2
3.447072083E0,-7.965940540E-3,1.127226233E-2,-7.590928450E-3,1.575253318E-2
3.457034083E0,-4.062572345E-3,4.086619020E-3,8.876584992E-3,1.058294431E-2
3.466996083E0,-7.915672758E-3,-4.746184945E-3,9.642643332E-3,1.334783567E-2
3.476958083E0,2.945297342E-3,7.080393434E-3,7.532967925E-3,1.074952805E-2
3.486921083E0,-3.525889311E-3,1.905373693E-2,1.474835895E-2,2.435140402E-2
3.496883083E0,1.545017101E-3,1.171665072E-2,5.500475764E-3,1.303542158E-2
3.506845083E0,-3.503117147E-3,1.533724666E-3,7.646915540E-3,8.549822125E-3
3.516808083E0,8.776186472E-3,2.728895545E-3,-1.896252036E-3,9.384246995E-3
3.526770083E0,-2.684041006E-3,9.912199974E-3,-2.778085247E-3,1.063830541E-2
3.536732083E0,-1.000299627E-2,1.170671046E-2,-3.555838019E-4,1.540238436E-2
3.546695083E0,-9.066902725E-3,1.485309720E-2,-1.447368599E-2,2.263428390E-2
3.556657083E0,-1.332979702E-2,1.859648466E-2,-8.056293726E-3,2.425729991E-2
3.566619083E0,-1.498589295E-2,1.575122952E-2,-4.215842485E-4,2.174525126E-2
3.576582083E0,-4.837401509E-3,2.069388092E-2,-1.813287355E-2,2.793632517E-2
3.586544083E0,3.572493447E-3,7.371584773E-3,8.658556938E-3,1.191946223E-2
3.596506083E0,1.264283598E-2,1.501214147E-2,-1.328838229E-2,2.370204204E-2
3.606468083E0,-1.376779916E-2,-4.747354388E-3,-1.763059773E-2,2.286761123E-2
3.616431083E0,-3.014130034E-3,2.592655420E-3,-3.344095722E-3,5.195172585E-3
3.626393083E0,-8.239412075E-3,9.478921294E-3,3.677825555E-3,1.308679720E-2
3.636355083E0,1.819900190E-4,3.196672797E-3,1.018935800E-2,1.068058302E-2
3.646318083E0,9.759199354E-3,7.689088583E-3,5.917382240E-4,1.243841668E-2
3.656280083E0,-4.699635627E-3,1.128571093E-2,6.673354134E-3,1.392793960E-2
3.666242083E0,-1.012608930E-2,-3.682576418E-3,2.924119458E-3,1.116465531E-2
3.676205083E0,-1.375582150E-2,3.578495979E-4,-5.287710205E-3,1.474145721E-2
3.686167083E0,-3.092135545E-3,-2.638263702E-3,-7.350023165E-3,8.399081981E-3
3.696129083E0,3.417295553E-3,-2.189197540E-3,-9.156739712E-3,1.001580635E-2
3.706092083E0,-4.248349350E-3,6.790371537E-3,1.799115166E-3,8.209411257E-3
3.716054083E0,-3.944129683E-4,1.307729781E-2,-1.349537373E-3,1.315266249E-2
3.726016083E0,-1.331002613E-2,2.520442307E-2,-9.232022613E-4,2.851792489E-2
3.735978083E0,-3.708409234E-3,2.041613817E-2,-2.699666776E-2,3.404983211E-2
3.745941083E0,1.836459688E-3,-4.581293464E-3,8.172653317E-3,9.547413065E-3
3.755903083E0,-6.141874208E-3,2.006764412E-3,-1.925203063E-2,2.030739780E-2
3.765865083E0,2.129257184E-2,1.967354178E-2,-4.035821334E-3,2.926960396E-2
3.775828083E0,-1.857048282E-3,3.435063779E-2,-1.836442329E-2,3.899573038E-2
3.785790083E0,1.223150720E-3,1.878710389E-2,-1.437369861E-2,2.368659076E-2
3.795752083E0,2.353202803E-3,1.876371503E-3,-6.806816831E-3,7.442518984E-3
3.805715083E0,-4.334924687E-3,-5.309271812E-3,6.067655683E-3,9.154036525E-3
3.815677083E0,2.710348908E-3,-3.965581656E-3,8.962027431E-3,1.016807576E-2
3.825639083E0,-4.066875530E-4,9.963070750E-3,-1.090213358E-2,1.477446074E-2
3.835602083E0,4.554291205E-3,5.920890570E-3,1.529799722E-2,1.702431298E-2
3.845564083E0,1.063363218E-2,1.145586491E-2,2.178599462E-3,1.578154840E-2
3.855526083E0,2.518427758E-3,-1.235399723E-2,2.207492016E-2,2.542175891E-2
3.865488083E0,8.889777772E-3,-2.403205633E-2,6.994950995E-3,2.656119763E-2
3.875451083E0,-4.357500421E-4,-5.183556676E-3,2.244453728E-2,2.303945294E-2
3.885413083E0,1.303796158E-2,-2.473372221E-4,-2.353577390E-3,1.325099786E-2
3.895375083E0,-2.052957416E-3,1.688675880E-3,1.724570476E-2,1.744937228E-2
3.905338083E0,-2.048275075E-3,8.713520765E-3,6.620802283E-3,1.113354830E-2
3.915300083E0,-1.654232126E-2,1.933674216E-2,-3.339344859E-3,2.566533098E-2
3.925262083E0,-4.836072181E-3,1.334626973E-2,-1.318897963E-2,1.937678233E-2
3.935225083E0,-1.345012633E-2,3.190006971E-2,-2.205153130E-2,4.104619810E-2
3.945187083E0,-3.858732926E-3,2.935711563E-2,-4.379557215E-2,5.286569963E-2
3.955149083E0,-1.031691866E-2,1.812929213E-2,-8.757301793E-3,2.262300551E-2
3.965112083E0,3.588536745E-3,2.217615008E-2,-3.427228510E-2,4.097863779E-2
3.975074083E0,3.884291654E-3,3.609895527E-2,-2.307779074E-2,4.302100323E-2
3.985036083E0,4.356404068E-3,1.246041656E-2,-3.417697549E-2,3.663749296E-2
3.994999083E0,-1.234187339E-2,7.385033369E-3,-1.457783952E-3,1.445633739E-2
4.004961083E0,-4.781071809E-3,1.727559865E-2,-1.600149035E-2,2.402816368E-2
4.014923083E0,1.296977756E-2,4.861375093E-3,1.186517000E-2,1.823815662E-2
4.024885083E0,9.137708852E-3,-9.706377983E-4,1.028693341E-2,1.379350788E-2
4.034848083E0,3.671896113E-3,-3.812969327E-3,3.660356998E-2,3.698436010E-2
4.044810083E0,2.834095177E-3,-1.159736753E-2,3.092775084E-2,3.315202560E-2
4.054772083E0,-6.851415555E-3,-1.429878116E-2,2.354432546E-2,2.838542406E-2
4.064735083E0,-5.673991889E-4,-1.356261671E-2,1.293813407E-2,1.875264853E-2
4.074697083E0,-9.652702371E-3,-9.833847284E-3,3.397743925E-3,1.419238807E-2
4.084659083E0,-2.220059419E-2,6.019708514E-3,-4.940897226E-3,2.352691519E-2
4.094622083E0,1.369066159E-3,1.784043968E-2,-1.595705152E-2,2.397463499E-2
4.104584083E0,4.396105749E-3,1.274166763E-2,-2.136112131E-2,2.525813420E-2
4.114546083E0,1.433304675E-2,3.310693502E-3,-1.866899014E-2,2.376821645E-2
4.124509083E0,4.608661174E-3,1.052498817E-5,-1.347542010E-2,1.424172797E-2
4.134471083E0,7.011652105E-3,1.677683115E-2,-1.079045177E-2,2.114377398E-2
4.144433083E0,-1.335819713E-2,2.186741710E-2,-9.157836065E-3,2.721197021E-2
4.154395083E0,2.077086316E-3,2.321344614E-2,-4.208241105E-3,2.368306700E-2
4.164358083E0,5.995131936E-4,9.291225672E-3,-1.959475055E-3,9.514506453E-3
4.174320083E0,4.441919597E-4,-5.528542399E-3,-9.880040288E-3,1.133036997E-2
4.184282083E0,1.637283880E-2,9.435067177E-3,1.069221854E-2,2.171206762E-2
4.194245083E0,-1.162415965E-2,1.242065549E-2,2.264553532E-3,1.716164249E-2
4.204207083E0,-6.512870905E-3,4.420495033E-4,1.877424002E-2,1.987674479E-2
4.214169083E0,4.580635652E-3,1.690196157E-2,3.742218018E-3,1.790705792E-2
4.224132083E0,3.609125339E-3,3.427053094E-3,7.377358899E-3,8.899207995E-3
4.234094083E0,-6.227828278E-3,5.066612363E-3,-1.960059777E-3,8.264274937E-3
4.244056083E0,1.956033421E-2,1.748375952E-2,1.280467138E-3,2.626648278E-2
4.254019083E0,-2.088232571E-4,2.931676984E-2,-3.190664783E-2,4.333071401E-2
4.263981083E0,-5.387834636E-3,2.003840804E-2,-3.687955856E-2,4.231628999E-2
4.273943083E0,1.534250458E-2,3.096626937E-2,-1.428299367E-2,3.739393258E-2
4.283905083E0,7.403835822E-3,2.767545640E-2,-2.690603592E-2,3.930244828E-2
4.293868083E0,6.973078754E-3,1.855204582E-2,-8.003084064E-3,2.137408679E-2
4.303830083E0,1.442233100E-2,5.383531451E-3,-2.707428955E-2,3.114487432E-2
4.313792083E0,1.453489903E-3,1.751533449E-2,1.609453417E-2,2.383135761E-2
4.323755083E0,5.553530110E-3,7.601380348E-4,1.833854936E-2,1.917607622E-2
4.333717083E0,9.550924273E-4,-2.064476430E-2,2.116399705E-2,2.958096121E-2
4.343679083E0,2.569654849E-3,8.698318005E-3,1.451388560E-2,1.711481047E-2
4.353641708E0,-4.871315360E-3,1.169092298E-2,2.651295684E-2,2.938272067E-2
4.363603708E0,-6.625726735E-3,3.153988123E-3,1.206689894E-2,1.412295812E-2
4.373565708E0,-8.066585739E-3,4.797055721E-3,3.294979110E-3,9.946780204E-3
4.383528708E0,-1.280383998E-2,6.137822270E-3,-3.572648764E-4,1.420347910E-2
4.393490708E0,-7.042491599E-3,2.783917844E-2,-9.750816822E-3,3.032647314E-2
4.403452708E0,2.375216656E-3,3.831855834E-2,-4.000723422E-2,5.544846577E-2
4.413414708E0,5.685014804E-3,3.217664301E-2,-1.344969235E-2,3.533482664E-2
4.423377708E0,1.165214863E-2,2.409169793E-2,-2.945125580E-2,3.979395614E-2
4.433339708E0,-3.126798570E-4,2.574529052E-2,-1.862513602E-2,3.177756196E-2
4.443301708E0,1.598427761E-3,1.542670906E-2,-1.891523100E-2,2.446066817E-2
4.453264708E0,-1.251724418E-3,3.684447527E-2,-3.030845761E-2,4.772509586E-2
4.463226708E0,-9.841412120E-4,3.910325468E-2,-3.605217755E-2,5.319579463E-2
4.473188708E0,-6.435477524E-3,2.026235640E-2,-2.392739117E-2,3.200778821E-2
4.483151708E0,6.293349070E-3,4.413478374E-3,-8.176746368E-3,1.122248703E-2
4.493113708E0,4.026461220E-3,-1.397367597E-2,2.096811533E-3,1.469260455E-2
4.503075708E0,1.195942895E-3,-1.784687161E-2,3.521785296E-2,3.949985156E-2
4.513038708E0,-2.725076582E-3,-1.947649062E-2,2.285208821E-2,3.014925646E-2
4.523000708E0,-1.532487157E-2,-3.428690314E-2,5.026441991E-2,6.274516177E-2
4.532962708E0,-1.993722837E-2,-1.737441659E-2,2.336554684E-2,3.528898137E-2
4.542925708E0,-1.149251507E-2,-1.484081805E-2,1.887130380E-2,2.661679714E-2
4.552887708E0,-7.637368133E-3,-2.872737050E-3,1.941743374E-2,2.106225874E-2
4.562849708E0,-5.942666880E-3,-1.366435826E-2,4.491173252E-3,1.556279581E-2
4.572811708E0,-9.545771414E-3,-4.844418168E-3,-4.172061458E-3,1.148896149E-2
4.582774708E0,6.771925399E-3,3.300753236E-2,-4.385828353E-2,5.530737022E-2
4.592736708E0,6.355562531E-3,5.441184998E-2,-5.941063464E-2,8.081253678E-2
4.602698708E0,1.442974051E-2,3.675384343E-2,-1.832692802E-2,4.353089373E-2
4.612661708E0,1.587294297E-2,2.538744092E-2,-3.492775798E-2,4.600457317E-2
4.622623708E0,1.369071641E-2,2.044186592E-3,2.821793184E-3,1.412716997E-2
4.632585708E0,2.576428026E-2,5.340846777E-3,-6.052964553E-3,2.699928076E-2
4.642548708E0,2.088949769E-3,1.432158530E-2,9.062599540E-3,1.707636457E-2
4.652510708E0,-1.891254951E-2,5.348448157E-3,-8.104752526E-3,2.125976105E-2
4.662472708E0,-6.423929273E-3,5.359557867E-3,-1.799195565E-2,1.984193025E-2
4.672434708E0,-1.649194841E-2,9.851388931E-3,-2.288088575E-3,1.934604806E-2
4.682397708E0,-2.177135374E-2,-1.529105365E-2,3.477850780E-3,2.683101958E-2
4.692359708E0,-3.775072061E-3,-2.864550948E-3,7.040047646E-3,8.486406309E-3
4.702321708E0,-3.977573016E-3,-4.619300365E-4,1.770829260E-2,1.815538745E-2
4.712284708E0,-3.710611076E-3,2.382155657E-3,1.905198276E-2,1.955559631E-2
4.722246708E0,1.126758913E-2,-4.584217072E-4,1.017415524E-2,1.518822406E-2
4.732208708E0,4.578858647E-3,-2.113183737E-3,1.401628755E-2,1.489589906E-2
4.742171708E0,-6.088527502E-3,-3.320049047E-3,-7.853322253E-3,1.047700163E-2
4.752133708E0,-1.051615340E-2,1.912390351E-2,-2.555233240E-2,3.360408991E-2
4.762095708E0,-7.905074679E-3,3.798175871E-2,-2.026995778E-2,4.377185613E-2
4.772058708E0,-5.375098670E-4,4.905696988E-2,-4.434235990E-2,6.612957048E-2
4.782020708E0,-1.029927651E-2,3.918803930E-2,-3.909974635E-2,5.630779418E-2
4.791982708E0,-2.501109950E-3,2.722463608E-2,-3.087980367E-2,4.124316471E-2
4.801945708E0,1.383382701E-2,3.734616637E-3,-2.670306444E-2,3.030471550E-2
4.811907708E0,-1.122388576E-2,-2.261001348E-2,5.181729421E-3,2.576894723E-2
4.821869708E0,1.580767343E-2,-2.548216581E-3,1.620555818E-2,2.278148509E-2
4.831831708E0,5.841144598E-3,1.136932611E-2,3.136797309E-2,3.387226420E-2
4.841794708E0,1.126982295E-3,-5.696942210E-3,1.297314428E-2,1.421364528E-2
4.851756708E0,3.268228099E-3,-1.467826545E-2,2.786782980E-3,1.529375529E-2
4.861718708E0,-6.706103110E-3,-3.911202550E-3,1.072196625E-2,1.323744253E-2
4.871681708E0,5.719536217E-3,1.164882302E-2,1.551851034E-3,1.306967536E-2
4.881643708E0,-3.831502260E-3,8.795381784E-3,-4.163802266E-3,1.045831725E-2
4.891605708E0,-4.469730416E-3,2.839992642E-2,-1.039042912E-2,3.056951632E-2
4.901568708E0,1.260141211E-2,1.702475309E-2,-1.819419622E-2,2.792251030E-2
4.911530708E0,1.513189975E-2,1.553020477E-2,-1.792873263E-2,2.813540659E-2
4.921492708E0,1.121913033E-2,1.747674286E-2,-8.565440029E-4,2.078555013E-2
4.931455708E0,2.648583581E-2,1.118747771E-2,-2.762451254E-2,3.987195567E-2
4.941417708E0,1.110614202E-2,1.343222380E-2,-2.102534495E-2,2.731000105E-2
4.951379708E0,2.391803563E-3,3.005001068E-2,-2.480213463E-2,3.903677431E-2
4.961341708E0,-1.670607527E-2,2.302575052E-2,-3.782805003E-2,4.733116845E-2
4.971304708E0,-1.935691049E-2,1.704989612E-2,-1.673648536E-2,3.074896557E-2
4.981266708E0,-3.308126209E-3,3.734031916E-3,6.839488149E-3,8.465535512E-3
4.991228708E0,4.138069949E-3,-1.054252982E-3,1.010223448E-2,1.096768954E-2
5.001191708E0,-1.504435140E-2,-1.648914814E-3,3.399169184E-2,3.720868909E-2
5.011153708E0,-6.705865567E-3,-6.878079772E-3,4.224430583E-2,4.332271909E-2
5.021115708E0,4.281381550E-3,-1.016538441E-2,4.096084200E-2,4.241999346E-2
5.031078708E0,-1.868765554E-3,-7.437658310E-4,1.131195031E-2,1.148937301E-2
5.041040708E0,4.386234004E-3,-1.654762030E-3,8.670178279E-3,9.856433306E-3
5.051002708E0,1.062766163E-2,1.360647082E-2,-2.150679007E-3,1.739852465E-2
5.060965708E0,-1.877536378E-3,2.467641950E-2,-2.883437455E-2,3.799831546E-2
5.070927708E0,1.184558183E-2,3.065402806E-2,-3.422967352E-2,4.745163637E-2
5.080889708E0,1.150425062E-2,1.613948464E-2,-3.236843169E-2,3.795452696E-2
5.090852708E0,1.566805745E-2,1.749954700E-2,-1.788487852E-2,2.952272090E-2
5.100814708E0,6.156971902E-3,2.693344474E-2,-9.103603140E-3,2.908941970E-2
5.110776708E0,2.138134902E-3,2.409169793E-2,3.433411941E-3,2.442887324E-2
5.120738708E0,-6.110294675E-3,2.395311892E-2,8.062652573E-3,2.600180712E-2
5.130701708E0,5.241526337E-3,1.078811288E-2,-6.858710870E-3,1.381661654E-2
5.140663708E0,3.425751175E-3,-7.175703049E-3,9.478409663E-3,1.237201419E-2
5.150625708E0,-7.504869313E-3,4.193623066E-3,-1.947524808E-2,2.128837302E-2
5.160588708E0,-2.020387511E-2,1.826026976E-2,-4.288932681E-3,2.756862283E-2
5.170550708E0,-1.153742443E-2,1.481099725E-2,-3.303676844E-3,1.906284561E-2
5.180512708E0,-1.919232964E-2,6.273477674E-3,-6.214420795E-3,2.112631215E-2
5.190475708E0,-1.997213807E-2,2.124410391E-2,-2.031030357E-2,3.553458430E-2
5.200437708E0,-5.905788308E-3,-1.169443130E-6,-1.627287425E-2,1.731140587E-2
5.210399708E0,3.802046911E-3,-1.350706816E-3,-6.219098568E-3,7.413309424E-3
5.220362708E0,1.542719785E-2,1.455956697E-4,-9.962559119E-3,1.836497252E-2
5.230324708E0,3.055664908E-2,-4.049196839E-3,1.463667713E-2,3.412238437E-2
5.240286708E0,6.896420843E-3,-1.650084257E-3,-9.964898005E-3,1.223039618E-2
5.250248708E0,1.564200993E-2,1.855263054E-2,-1.933264911E-2,3.102618082E-2
5.260211708E0,8.222190198E-3,1.121788323E-2,-1.199680544E-2,1.836759801E-2
5.270173708E0,9.524945277E-3,9.270760417E-3,-1.273457788E-2,1.840763578E-2
5.280135708E0,6.118288916E-3,2.169200063E-2,-2.646734856E-2,3.476344187E-2
5.290098708E0,-1.104407018E-2,2.528920770E-2,-1.381638587E-2,3.086110870E-2
5.300060708E0,-1.143990383E-2,2.170252562E-2,-1.000867903E-2,2.649612564E-2
5.310022708E0,-2.049085919E-2,4.490076900E-3,-1.350122094E-3,2.102044078E-2
5.319985708E0,-2.019620521E-2,-3.441086411E-3,3.587902687E-2,4.131624801E-2
5.329947708E0,-5.777757126E-3,2.100319862E-3,1.652423143E-2,1.763076985E-2
5.339909708E0,-1.863204761E-2,1.062906861E-2,1.312751077E-2,2.514879394E-2
5.349872500E0,-1.654966682E-2,-5.686417222E-3,-9.022765383E-3,1.968850192E-2
5.359834500E0,-3.689757530E-3,-1.571906984E-2,-1.192758903E-3,1.619031010E-2
5.369796500E0,-7.495860946E-3,5.081230402E-3,-1.772166811E-2,1.990136564E-2
5.379759500E0,-8.388123214E-3,1.570503652E-2,-3.278409563E-2,3.730691235E-2
5.389721500E0,1.322678553E-2,3.282042146E-3,-1.948350728E-2,2.377660009E-2
5.399683500E0,1.487144741E-2,7.324807048E-3,-1.815326571E-2,2.458360841E-2
5.409645500E0,-1.393396058E-3,1.316325188E-2,-2.597406283E-3,1.348922800E-2
5.419608500E0,2.427668008E-2,-2.102074027E-3,-1.924786448E-2,3.105247491E-2
5.429570500E0,1.544441972E-2,-5.547253489E-3,2.186273932E-3,1.655541952E-2
5.439532500E0,5.557029303E-3,1.090973496E-2,1.489278518E-2,1.927946944E-2
5.449495500E0,2.836242202E-3,2.153471053E-2,-3.468129784E-4,2.172345061E-2
5.459457500E0,-4.094480784E-3,5.820318460E-3,6.047775149E-3,9.338975539E-3
5.469419500E0,-2.639241284E-3,2.034304798E-2,5.562967882E-3,2.125445382E-2
5.479382500E0,-7.966041039E-3,-7.607227564E-4,-6.596170887E-3,1.037043776E-2
5.489344500E0,-2.841454903E-2,1.491624713E-3,8.877900615E-3,2.980652043E-2
5.499306500E0,-1.890498467E-2,1.047353268E-2,4.671340585E-3,2.211141685E-2
5.509269500E0,5.640027788E-3,3.589020967E-3,-4.168406948E-3,7.878235935E-3
5.519231500E0,1.514611579E-3,1.137049556E-2,-1.610739805E-2,1.977449087E-2
5.529193500E0,1.159137413E-3,1.121612906E-2,-1.517425552E-3,1.137750988E-2
5.539155500E0,-3.979103342E-3,7.021921277E-3,2.723559961E-3,8.518123073E-3
5.549118500E0,2.203335925E-3,5.975269675E-3,-2.220772505E-3,6.744654729E-3
5.559080500E0,2.912351936E-3,-1.648914814E-4,-4.424661174E-3,5.299680133E-3
5.569042500E0,-1.258425876E-3,5.824996233E-3,-1.434965193E-2,1.553791258E-2
5.579005500E0,6.490943846E-3,5.078891516E-3,-1.318145134E-2,1.554600110E-2
5.588967500E0,5.280469707E-3,3.283211589E-3,-1.064434446E-2,1.232740474E-2
5.598929500E0,-1.766032716E-3,5.078891516E-3,4.372986406E-4,5.394927310E-3
5.608892500E0,5.048929104E-3,-1.660024524E-3,-7.609639540E-3,9.281916852E-3
5.618854500E0,-4.381195349E-3,4.629240632E-3,6.277570724E-3,8.946096116E-3
5.628816500E0,4.815908424E-3,1.181371450E-2,5.241517201E-3,1.379240106E-2
5.638779500E0,-4.395347438E-3,-5.101695657E-3,1.212880634E-2,1.387279067E-2
5.648741500E0,-2.381456275E-2,1.181956172E-2,-6.981063858E-3,2.748764615E-2
5.658703500E0,-1.578785228E-2,1.061854362E-2,-1.846623793E-3,1.911595584E-2
5.668665500E0,-1.310244997E-2,1.720367789E-2,-1.126809619E-2,2.438464107E-2
5.678628500E0,-1.000857397E-2,9.567214251E-3,-1.693010129E-2,2.187079036E-2
5.688590500E0,-7.275978229E-3,1.120852768E-2,-8.327677622E-3,1.574551259E-2
5.698552500E0,8.503500656E-3,2.865135670E-4,7.010811567E-3,1.102465837E-2
5.708515500E0,8.792284587E-3,1.795212150E-2,-5.879960060E-3,2.083643119E-2
5.718477500E0,1.286471040E-2,8.522316813E-3,-1.727625646E-2,2.316462162E-2
5.728439500E0,1.161799723E-2,2.234221101E-3,-1.591794826E-2,1.983307037E-2
5.738402500E0,1.692230348E-2,5.818564296E-3,6.052964553E-3,1.889069680E-2
5.748364500E0,1.384697868E-2,3.051369488E-2,-1.366209246E-2,3.618669872E-2
5.758326500E0,9.106124751E-4,2.018458843E-2,-1.904562391E-2,2.776657371E-2
5.768289500E0,1.072524161E-2,9.710471034E-3,5.887561440E-3,1.562009715E-2
5.778251500E0,-6.276483508E-4,4.618715644E-3,-5.012817979E-3,6.845058125E-3
5.788213500E0,-3.703900483E-3,9.104699492E-3,-1.572674431E-2,1.854575203E-2
5.798176500E0,-1.809850289E-4,1.883037329E-2,-1.898590922E-3,1.892671026E-2
5.808138500E0,-5.678925477E-3,7.897249460E-3,6.710849404E-3,1.181745503E-2
5.818100500E0,-8.818062586E-3,1.224231541E-2,-6.677593365E-3,1.649917475E-2
5.828062500E0,-1.993814200E-2,1.179968119E-2,-1.800942421E-4,2.316882423E-2
5.838025500E0,-3.024373624E-2,1.973025978E-2,9.244447947E-4,3.612231071E-2
5.847987500E0,-1.034546038E-3,1.181137562E-4,-7.723002434E-3,7.792881557E-3
5.857949500E0,3.708619368E-3,-6.164719462E-3,1.004208125E-2,1.235317852E-2
5.867912500E0,1.445590680E-2,-6.317331791E-3,-1.072847128E-2,1.907831278E-2
5.877874500E0,5.864771004E-3,1.134184420E-2,-4.378979802E-3,1.349846039E-2
5.887836500E0,-5.779150408E-5,1.074718237E-2,-1.672245204E-2,1.987827133E-2
5.897799500E0,5.101599726E-3,1.958115578E-2,-6.731826290E-3,2.132523075E-2
5.907761500E0,5.906190304E-4,2.033486187E-2,-6.509705186E-3,2.135958099E-2
5.917723500E0,1.217638349E-2,2.752225935E-2,-4.888710827E-3,3.048997488E-2
5.927686500E0,-4.049374997E-3,2.033953965E-2,-1.465487659E-2,2.539408826E-2
5.937648500E0,6.945747589E-3,9.718072414E-3,2.155868411E-3,1.213804390E-2
5.947610500E0,4.091959172E-3,1.166461051E-2,-2.331796512E-3,1.257952873E-2
5.957573500E0,6.748262448E-3,-1.509751081E-3,-4.700576663E-3,8.361448162E-3
5.967535500E0,-2.995839212E-2,1.615351796E-2,-4.252168313E-3,3.430047137E-2
5.977497500E0,-3.964087875E-3,2.079445302E-2,8.319418430E-3,2.274502126E-2
5.987459500E0,-1.429860757E-2,-2.104997635E-3,-6.391006708E-3,1.580272635E-2
5.997422500E0,-2.263653609E-3,9.870100021E-3,-5.333830118E-3,1.144520624E-2
6.007384500E0,4.164249944E-3,6.129051447E-3,-1.208853364E-2,1.417881853E-2
6.017346500E0,4.748665444E-3,1.825383782E-2,-5.651918650E-3,1.969001278E-2
6.027309500E0,2.707219734E-3,5.377099514E-3,-5.294726864E-3,8.017254544E-3
6.037271500E0,1.678520911E-3,-1.661778688E-3,8.819355369E-3,9.130168124E-3
6.047233500E0,4.936461565E-3,-2.703752518E-3,1.692695841E-3,5.877427130E-3
6.057196500E0,1.175820250E-2,8.224108815E-3,-1.583374836E-2,2.136817444E-2
6.067158500E0,1.844941348E-2,1.032092035E-2,-2.068087086E-3,2.124098018E-2
6.077120500E0,1.665967670E-2,2.933665037E-2,-1.083306335E-2,3.543358780E-2
6.087083500E0,-6.982712955E-3,1.436602414E-2,-1.185406029E-2,1.989119592E-2
6.097045500E0,4.776014881E-3,6.578702331E-3,-1.210965671E-2,1.458538406E-2
6.107007500E0,4.540445181E-3,9.725089073E-3,-2.729626447E-3,1.107446886E-2
6.116970500E0,5.002356945E-3,5.991641879E-3,-1.033736564E-2,1.295316470E-2
6.126932500E0,-9.361424237E-3,3.750404119E-3,-1.773358181E-2,2.040053231E-2
6.136894500E0,-1.879117410E-2,2.107921243E-3,-3.269836083E-3,1.918966868E-2
6.146856500E0,3.035801277E-3,6.448309422E-3,-5.504495725E-3,9.005346022E-3
6.156819500E0,-9.588099774E-3,9.142121673E-3,2.898464799E-3,1.356138430E-2
6.166781500E0,-8.461651951E-3,1.153480232E-2,-6.341378465E-3,1.564814044E-2
6.176743500E0,-7.756733559E-3,1.662655771E-2,-1.056591868E-2,2.117186752E-2
6.186706500E0,1.349540570E-2,8.397186399E-3,7.613074780E-4,1.591283455E-2
6.196668500E0,-9.029105958E-4,7.795507908E-3,-4.432189465E-3,9.012740678E-3
6.206630500E0,3.717426737E-3,1.887773573E-2,-3.609486222E-3,1.957591783E-2
6.216593500E0,6.712119346E-3,1.094189465E-2,-1.181086399E-2,1.744345473E-2
6.226555500E0,1.554666377E-2,4.625147581E-4,-7.603792325E-3,1.731272168E-2
6.236517500E0,1.449014499E-2,2.171772838E-2,-1.941867627E-2,3.253780902E-2
6.246480500E0,-8.366863104E-4,8.843913674E-3,-4.432774186E-3,9.927957496E-3
6.256442500E0,-1.093524344E-2,6.899129748E-3,-9.251537696E-3,1.589869461E-2
6.266404500E0,-1.131258071E-3,4.505864382E-3,-1.017473996E-2,1.118516392E-2
6.276366500E0,1.655620839E-2,1.154942036E-2,-9.238673821E-3,2.220023065E-2
6.286329500E0,-2.977237757E-3,4.365531206E-3,6.605526432E-3,8.459006255E-3
6.296291500E0,-5.607319926E-3,1.589156270E-2,-1.620848179E-3,1.692958802E-2
6.306253500E0,-1.761179984E-2,1.109450698E-2,1.333165169E-3,2.085763429E-2
6.316216500E0,6.108161355E-3,1.617983043E-2,1.007760309E-2,2.001635911E-2
6.326178500E0,-5.293128015E-3,1.408243418E-2,8.007688746E-3,1.704274730E-2
6.336140500E0,-1.284890465E-2,1.108982921E-2,-1.879952922E-3,1.707667665E-2
6.346103500E0,2.267883704E-3,3.457458615E-3,-8.045257106E-3,9.045633117E-3
6.356065250E0,4.618870961E-3,5.105788708E-3,-1.466123544E-2,1.619737237E-2
6.366027250E0,6.635995908E-3,8.398355842E-3,-4.622223973E-3,1.165906416E-2
6.375990250E0,1.115370547E-2,1.737850964E-2,-6.858783960E-3,2.175915119E-2
6.385952250E0,1.277109557E-3,6.152440310E-3,-7.161669731E-3,9.527488857E-3
6.395914250E0,-7.412168104E-4,1.199030042E-2,-6.564084291E-3,1.368955474E-2
6.405877250E0,-2.561112433E-3,1.318722546E-2,4.070246816E-3,1.403670622E-2
6.415839250E0,-1.616983535E-3,7.345272303E-3,-4.417498335E-3,8.722496919E-3
6.425801250E0,5.674695382E-3,1.123074710E-2,-1.310872659E-3,1.265109621E-2
6.435763250E0,-1.142421228E-2,1.796030760E-2,2.212586403E-3,2.140048630E-2
6.445726250E0,6.741611240E-4,1.750656366E-2,-4.306474328E-3,1.804106387E-2
6.455688250E0,-2.178645143E-3,-3.153403401E-3,5.470070243E-3,6.679230205E-3
6.465650250E0,3.937807381E-3,9.115224481E-3,-1.631957889E-3,1.006265029E-2
6.475613250E0,6.411618143E-3,1.076472402E-2,2.378647327E-3,1.275327775E-2
6.485575250E0,-7.590001118E-3,-6.147762537E-3,-9.773694053E-3,1.381767696E-2
6.495537250E0,-1.036790821E-2,1.179383397E-3,-7.568124309E-3,1.289034411E-2
6.505500250E0,-9.811691819E-3,3.122997880E-3,-1.486771524E-2,1.808511456E-2
6.515462250E0,3.656373583E-3,1.330416977E-2,2.110113949E-4,1.379907703E-2
6.525424250E0,-5.202793102E-3,7.617167830E-3,-1.012445390E-2,1.369652761E-2
6.535387250E0,2.212307747E-3,3.880212307E-3,-6.006844640E-3,7.485488337E-3
6.545349250E0,-4.471749533E-5,2.005302608E-2,-6.388740912E-3,2.104618410E-2
6.555311250E0,-1.817661803E-5,2.541784644E-3,3.754935712E-3,4.534373360E-3
6.565274250E0,1.500634450E-2,4.187775850E-3,6.157118082E-3,1.675225194E-2
6.575236250E0,8.671242655E-3,1.077641845E-2,-1.318437494E-2,1.910888240E-2
6.585198250E0,6.350683761E-3,9.878286123E-3,-1.094839968E-2,1.605550300E-2
6.595160250E0,-8.277464658E-6,2.065821290E-2,-3.056339622E-3,2.088308025E-2
6.605123250E0,-3.746370454E-3,-4.035163522E-3,1.673034579E-4,5.508704628E-3
6.615085250E0,-4.816050036E-4,1.228149176E-2,-2.379297830E-2,2.678008214E-2
6.625047250E0,-8.278611260E-3,5.546084046E-3,7.183889151E-3,1.228424666E-2
6.635010250E0,-7.197155021E-3,-1.337842941E-3,-1.229428254E-2,1.430867734E-2
6.644972250E0,-1.857972417E-2,4.790623784E-3,-9.026858434E-3,2.120472588E-2
6.654934250E0,-2.898163302E-3,1.002680540E-2,-4.788211808E-3,1.148316809E-2
6.664897250E0,6.818387923E-3,9.131011963E-3,-8.716371283E-3,1.434715727E-2
6.674859250E0,-3.338700752E-3,2.125404418E-2,-6.137310639E-3,2.237292780E-2
6.684821250E0,-2.914960342E-3,4.940312505E-3,-1.694581568E-2,1.789034238E-2
6.694784250E0,4.487596401E-3,8.684284687E-3,-1.816678740E-2,2.062977185E-2
6.704746250E0,-1.056518321E-2,1.122665405E-2,-2.717201114E-3,1.565388257E-2
6.714708250E0,4.048497914E-3,1.432567835E-4,-2.922511473E-3,4.995190805E-3
6.724671250E0,1.034466096E-2,8.073835373E-3,-1.275928237E-2,1.830295371E-2
6.734633250E0,7.284991164E-3,3.285550475E-3,-6.641852260E-3,1.039134927E-2
6.744595250E0,6.031293310E-3,3.436408639E-3,-8.913568631E-3,1.129765945E-2
6.754557250E0,1.473676045E-2,8.828126192E-3,-1.104480565E-2,2.042291978E-2
6.764520250E0,1.372139145E-2,-5.964159966E-4,5.925568342E-3,1.495809666E-2
6.774482250E0,9.702951880E-4,4.495339394E-3,-6.246580482E-3,7.756888341E-3
6.784444250E0,1.174792419E-3,1.033261478E-2,-5.786477700E-3,1.190068862E-2
6.794407250E0,6.234936300E-3,1.691891849E-2,-6.234374419E-3,1.907856541E-2
6.804369250E0,-5.440560076E-4,1.512967050E-2,-3.784902692E-3,1.560539698E-2
6.814331250E0,-4.720690171E-3,2.052781999E-2,-1.140908718E-2,2.395503245E-2
6.824294250E0,-4.547959766E-3,7.211371064E-3,4.379491434E-3,9.584766866E-3
6.834256250E0,1.088303420E-2,4.666662812E-3,2.276247963E-3,1.205817068E-2
6.844218250E0,1.003094413E-3,7.211955786E-3,4.211749434E-3,8.411738106E-3
6.854181250E0,2.993820095E-3,4.815766811E-3,1.084658504E-3,5.773305190E-3
6.864143250E0,-4.977382938E-3,8.254514337E-3,2.341298237E-3,9.919325848E-3
6.874105250E0,2.991851228E-3,3.905940056E-3,-1.043252908E-2,1.153452229E-2
6.884068250E0,6.456162049E-3,1.138335943E-2,-1.062797226E-2,1.685872755E-2
6.894030250E0,6.137991291E-3,1.512323856E-2,5.858325362E-3,1.734091283E-2
6.903992250E0,4.141244804E-3,1.213531137E-2,-1.801475979E-2,2.211215188E-2
6.913954250E0,5.220211409E-3,1.288375497E-2,-1.382340252E-2,1.960429051E-2
6.923917250E0,-3.852168513E-3,6.750610471E-3,-2.002262056E-2,2.147825128E-2
6.933879250E0,1.099644278E-2,1.693529069E-2,-1.337375164E-2,2.421947682E-2
6.943841250E0,-4.652492451E-3,-1.026771069E-3,3.827002645E-3,6.111128707E-3
6.953804250E0,-9.949215590E-3,3.914126158E-3,-1.309776306E-2,1.690735555E-2
6.963766250E0,4.451110689E-3,5.709221363E-3,-1.083839893E-2,1.303374414E-2
6.973728250E0,2.802268965E-3,1.050042987E-2,-2.806027628E-2,3.009137491E-2
6.983691250E0,1.130167200E-2,1.543898821E-2,-2.025351249E-2,2.786206947E-2
6.993653250E0,-9.542715331E-3,1.034372449E-2,1.376434565E-3,1.414038982E-2
7.003615250E0,-7.159837908E-3,8.250421286E-3,-1.572257817E-2,1.914503054E-2
7.013578250E0,8.745424636E-4,-1.782231331E-3,-1.955425858E-2,1.965477555E-2
7.023540250E0,1.074035757E-2,5.847800374E-3,-2.936888315E-2,3.181325741E-2
7.033502250E0,-3.058290216E-3,1.228792369E-2,1.729028977E-2,2.143129320E-2
7.043465250E0,5.046160812E-3,2.109090686E-3,7.256467715E-3,9.086711515E-3
7.053427250E0,6.008607941E-4,1.213238776E-2,1.527226947E-2,1.951404830E-2
7.063389250E0,1.698511080E-3,1.377837896E-2,2.698416933E-3,1.414249344E-2
7.073351250E0,-1.870528855E-3,1.676981449E-2,6.175244451E-3,1.796828318E-2
7.083314250E0,1.924629305E-3,1.123250127E-2,-6.128028184E-3,1.293932039E-2
7.093276250E0,-1.473973431E-3,7.334162593E-3,-4.390089512E-3,8.673835630E-3
7.103238250E0,-1.005668559E-2,6.878664494E-3,-1.836902797E-2,2.204255291E-2
7.113201250E0,2.416727319E-4,9.570137858E-3,-1.413447440E-2,1.707130079E-2
7.123163250E0,-1.776594250E-4,2.244395256E-2,-1.085586749E-2,2.493215651E-2
7.133125250E0,7.095778920E-3,1.750130117E-2,-1.561096944E-2,2.450199967E-2
7.143088250E0,7.602462997E-3,5.230919123E-3,-2.354673743E-3,9.523888225E-3
7.153050250E0,7.063706028E-3,9.122825861E-3,2.140665650E-3,1.173474942E-2
7.163012250E0,5.880764052E-3,-7.493206859E-3,4.851434827E-3,1.068961902E-2
7.172975250E0,-1.289361301E-3,1.301648676E-2,4.367285371E-3,1.379001674E-2
7.182937250E0,-4.355399078E-4,1.242416382E-2,-1.548876263E-2,1.986079831E-2
7.192899250E0,-9.617619077E-4,6.137237549E-3,1.410348415E-3,6.370223964E-3
7.202862250E0,6.268886696E-3,9.004712105E-4,3.772038817E-3,7.371435793E-3
7.212824250E0,1.348981430E-2,-1.643652320E-3,-5.070193782E-3,1.450460437E-2
7.222786250E0,6.174732819E-3,8.977230191E-3,4.761314616E-3,1.189067299E-2
7.232748250E0,7.280468708E-4,1.840118766E-2,-2.785028815E-3,1.862498711E-2
7.242711250E0,2.100768910E-2,1.990041375E-2,-1.923149228E-3,2.900082709E-2
7.252673250E0,6.061369926E-3,1.660024524E-2,-2.263749540E-2,2.871871420E-2
7.262635250E0,4.029549281E-3,1.405787587E-2,-1.802988946E-2,2.321503943E-2
7.272598250E0,-7.598237470E-3,1.390760243E-2,-1.771830596E-2,2.377168450E-2
7.282560250E0,6.746142833E-3,1.451337397E-2,-2.754440568E-2,3.185659667E-2
7.292522250E0,1.190406312E-3,1.661193967E-2,-2.354205966E-2,2.883751341E-2
7.302485250E0,1.898029041E-3,9.728597403E-3,-1.683537640E-2,1.953658159E-2
7.312447250E0,-6.075741285E-3,1.766794682E-2,-1.809713244E-3,1.877088274E-2
7.322409250E0,-4.310265882E-3,1.916307986E-2,-6.570516229E-3,2.071168040E-2
7.332372250E0,-1.025834600E-3,-4.481306076E-3,-2.466355562E-3,5.217025065E-3
7.342334250E0,-6.573298224E-3,-1.376083732E-2,5.142626166E-3,1.609395840E-2
7.352296708E0,-2.726373933E-3,-2.536522150E-3,-6.373465061E-5,3.724395461E-3
7.362259708E0,1.668552779E-2,-1.199848652E-3,-3.525140136E-4,1.673232622E-2
7.372221708E0,3.835152201E-3,-5.094094276E-3,1.474594697E-3,6.544663355E-3
7.382183708E0,-6.867326377E-4,5.899840593E-4,-3.113642335E-3,3.242599497E-3
7.392145708E0,3.500353424E-3,-3.450441957E-3,6.602091193E-3,8.230773470E-3
7.402108708E0,1.236359489E-2,-4.647367001E-3,5.243856087E-3,1.421107052E-2
7.412070708E0,1.153311211E-2,2.319648921E-2,1.775726303E-3,2.596618938E-2
7.422032708E0,1.682539045E-2,1.017473996E-2,-1.261368670E-2,2.336074034E-2
7.431995708E0,7.971394896E-3,2.169492424E-2,-7.741201892E-3,2.437496833E-2
7.441957708E0,6.406186628E-3,1.945368648E-2,-2.875251353E-2,3.530144726E-2
7.451919708E0,1.783688567E-3,7.926485538E-3,-2.918177225E-2,3.029169109E-2
7.461882708E0,1.559804161E-3,8.678437471E-3,-2.773685217E-2,2.910466001E-2
7.471844708E0,-6.330300733E-3,1.481859863E-2,-1.386842608E-2,2.126021671E-2
7.481806708E0,-3.200012106E-3,1.198152959E-2,-9.473074079E-3,1.560564838E-2
7.491769708E0,-1.316798447E-2,8.545705676E-3,3.135861754E-3,1.600807700E-2
7.501731708E0,-1.189248746E-2,6.307976246E-3,1.971096396E-3,1.360540493E-2
7.511693708E0,-6.126146112E-3,1.992906511E-2,1.680497088E-2,2.677880409E-2
7.521656708E0,1.299594385E-2,3.151649237E-4,-2.490087949E-2,2.808999261E-2
7.531618708E0,4.639925505E-3,-1.270658433E-2,-4.995787963E-3,1.442026669E-2
7.541580708E0,8.043210581E-4,-1.777553558E-3,7.238268256E-3,7.496609658E-3
7.551543708E0,1.258784931E-2,1.123893321E-2,1.780711055E-2,2.453285055E-2
7.561505708E0,1.816396429E-2,8.843913674E-3,-1.527285419E-2,2.532596460E-2
7.571467708E0,1.627773932E-2,5.552515984E-3,4.455651417E-3,1.776648701E-2
7.581429708E0,1.328469124E-3,1.363336802E-2,-4.808238521E-3,1.451732452E-2
7.591392708E0,6.148265032E-3,8.391923904E-3,-6.574682370E-3,1.230658352E-2
7.601354708E0,7.100036424E-3,6.438953876E-3,-1.725228287E-2,1.973605605E-2
7.611316708E0,6.472429186E-3,1.017590940E-2,5.576489568E-3,1.328678695E-2
7.621279708E0,8.005317883E-3,1.227272093E-2,-1.988411464E-2,2.469985442E-2
7.631241708E0,-4.433692382E-3,1.601903200E-2,-7.228327990E-3,1.812500317E-2
7.641203708E0,-4.849009146E-3,2.096519172E-2,-1.180786729E-2,2.454542490E-2
7.651166708E0,6.262276601E-4,1.378071785E-2,-9.567287341E-3,1.678789244E-2
7.661128708E0,-1.016157459E-2,1.318547130E-2,2.655732259E-3,1.685725853E-2
7.671090708E0,-9.616084183E-3,1.558750749E-2,-3.733447194E-3,1.869165837E-2
7.681053708E0,-2.639451418E-3,1.903151751E-2,-9.435067177E-3,2.140527634E-2
7.691015708E0,5.169934491E-3,1.469054461E-2,-4.200712815E-3,1.613029174E-2
7.700977708E0,-1.076161768E-4,8.692470789E-3,2.830052376E-3,9.142200288E-3
7.710940708E0,8.233007547E-3,1.078635871E-2,-1.333749890E-3,1.363476572E-2
7.720902708E0,9.495572154E-3,1.737090826E-2,6.765813231E-3,2.092105573E-2
7.730864708E0,5.980760576E-3,2.141718149E-2,-7.961057201E-3,2.361871275E-2
7.740826708E0,3.372957213E-3,6.902638078E-3,-1.866964795E-2,2.018858606E-2
7.750789708E0,2.434401899E-2,1.349361956E-2,-8.707088828E-3,2.916371762E-2
7.760751708E0,-3.786757356E-4,1.888299823E-2,1.118163049E-2,2.194857348E-2
7.770713708E0,2.323975861E-3,1.244345963E-2,9.004712105E-4,1.269060281E-2
7.780676708E0,-9.628651128E-3,9.301165938E-3,-6.746517420E-3,1.499126771E-2
7.790638708E0,5.246606106E-3,1.244462907E-2,-1.483855225E-2,2.006435400E-2
7.800600708E0,-8.798876409E-3,9.149138331E-3,-5.821560994E-3,1.396486773E-2
7.810563708E0,-7.018125155E-3,1.768490374E-2,-9.914611951E-3,2.145482303E-2
7.820525708E0,-2.285288307E-3,1.678794086E-2,-1.846952699E-2,2.506353782E-2
7.830487708E0,1.295858106E-2,2.202996969E-2,-2.030262910E-2,3.264109581E-2
7.840450708E0,2.447626200E-3,1.948935449E-2,-7.189736366E-3,2.091693385E-2
7.850412708E0,7.759803347E-3,2.084240019E-2,-7.564469799E-3,2.349130471E-2
7.860374708E0,-1.931970301E-3,5.278866291E-3,-1.840520762E-2,1.924449547E-2
7.870337708E0,1.403400735E-2,1.201602817E-2,-2.680422127E-2,3.255463981E-2
7.880299708E0,1.804422885E-2,7.977941036E-3,-3.659772277E-3,2.006578359E-2
7.890261708E0,3.112116577E-3,2.290939093E-3,-6.782039255E-4,3.923471942E-3
7.900224708E0,2.628380537E-2,1.022561073E-2,-3.679579720E-3,2.844188543E-2
7.910186708E0,2.651339995E-2,9.031609297E-3,1.557632469E-2,3.204921581E-2
7.920148708E0,2.590179490E-4,8.882505298E-3,-6.278228536E-3,1.088035589E-2
7.930110708E0,-2.983669695E-3,8.285504580E-3,2.689134479E-3,9.207785577E-3
7.940073708E0,3.592483616E-3,6.340135932E-3,-6.907315850E-3,1.004063118E-2
7.950035708E0,-2.257326739E-3,1.891106486E-2,5.111124292E-3,1.971921626E-2
7.959997708E0,7.605345491E-3,4.985336065E-3,-4.994691610E-3,1.037505663E-2
7.969960708E0,-9.150773725E-3,9.925648570E-3,-5.599878430E-3,1.461553276E-2
7.979922708E0,-6.198843447E-3,4.084864855E-3,-6.155363917E-3,9.643665585E-3
7.989884708E0,-3.404673790E-3,1.935369909E-2,-6.912724525E-3,2.083130414E-2
7.999847708E0,2.741709170E-3,6.630742550E-3,-1.350816451E-2,1.529556224E-2
8.009809708E0,-8.629435063E-3,1.891048014E-2,-1.732237637E-2,2.705805115E-2
8.019771708E0,-2.743088747E-3,3.647493124E-3,-1.620029569E-2,1.683087408E-2
8.029734708E0,-2.092563165E-3,3.104228318E-2,-5.754244924E-3,3.164037769E-2
8.039696708E0,1.640468785E-2,2.117276788E-2,6.828305349E-3,2.764101368E-2
8.049658708E0,-8.223720524E-3,5.613327026E-3,5.706882477E-4,9.973199318E-3
8.059621708E0,-9.303893116E-3,6.366448402E-3,4.687201157E-3,1.220917471E-2
8.069583708E0,-5.190911377E-3,7.869182825E-3,5.042638779E-3,1.069101516E-2
8.079545708E0,1.072954936E-3,1.715923905E-2,-1.439584494E-2,2.242389504E-2
8.089507708E0,3.352848273E-3,-3.042306304E-3,-6.254254952E-3,7.720940629E-3
8.099470708E0,5.137975803E-3,1.791703820E-2,-1.502807513E-3,1.869966534E-2
8.109432708E0,-9.738610759E-3,2.572774887E-4,-1.591487847E-2,1.865985230E-2
8.119394708E0,7.883549617E-3,1.552728117E-2,-8.163882494E-3,1.923267512E-2
8.129357708E0,6.073137447E-3,1.387368858E-2,-5.221490487E-3,1.601955668E-2
8.139319708E0,-6.353118578E-3,1.522498012E-2,4.308301583E-3,1.705061869E-2
8.149281708E0,7.886066660E-4,1.897421479E-2,-6.279909611E-3,2.000199970E-2
8.159244708E0,1.735695717E-2,-4.529253244E-3,-2.640529498E-3,1.813147796E-2
8.169206708E0,7.871430349E-3,1.058813810E-2,-1.880406082E-2,2.297086823E-2
8.179168708E0,1.568361653E-2,1.672946870E-2,-1.617105961E-2,2.805983106E-2
8.189131708E0,1.215569896E-2,1.209496558E-2,2.314985767E-3,1.730342072E-2
8.199093708E0,4.697694168E-3,4.768404365E-3,-2.100787640E-2,2.204851200E-2
8.209055708E0,5.018053064E-4,3.566801548E-3,-6.726125255E-3,7.629852082E-3
8.219018708E0,8.896716773E-3,8.058047891E-3,-6.147835627E-3,1.348627406E-2
8.228980708E0,8.816408920E-3,-4.665493369E-3,1.630664192E-2,1.911550327E-2
8.238942708E0,4.808590268E-3,5.512170196E-3,-1.044897437E-3,7.389071070E-3
8.248905708E0,2.815434337E-4,1.059457004E-2,6.233789697E-3,1.229570311E-2
8.258867708E0,6.769636762E-3,1.148276210E-2,-3.718829155E-4,1.333492048E-2
8.268829708E0,3.406217820E-3,1.088517666E-2,-3.522947431E-3,1.193735940E-2
8.278791708E0,-6.936227591E-3,9.985290170E-3,-7.247039080E-3,1.415404000E-2
8.288754708E0,-5.898305699E-3,1.641956627E-2,-1.887941681E-2,2.570650785E-2
8.298716708E0,2.367651821E-3,1.282528281E-2,-1.347322740E-2,1.875157356E-2
8.308678708E0,-2.954529547E-3,1.567755461E-2,-4.901793972E-3,1.668959399E-2
8.318641708E0,4.120921162E-3,1.733056247E-2,-3.352720365E-3,1.812653085E-2
8.328603708E0,5.285380455E-3,2.062722266E-2,2.144247070E-3,2.140129334E-2
8.338565708E0,-4.120551143E-3,6.261783242E-3,-2.705433592E-3,7.969205859E-3
8.348528708E0,1.988418773E-3,6.561160684E-3,9.104114771E-3,1.139682168E-2
8.358490208E0,7.063687756E-3,1.449349344E-2,-8.546290398E-3,1.824818118E-2
8.368452208E0,2.422117721E-3,9.847880602E-3,-4.728643298E-3,1.118961456E-2
8.378415208E0,1.970625878E-3,-5.873528123E-3,-7.504901290E-3,9.731661849E-3
8.388377208E0,1.116594351E-3,7.897249460E-3,3.421205878E-3,8.678593299E-3
8.398339208E0,1.664487594E-2,1.615000963E-3,-3.687254190E-3,1.712471800E-2
8.408302208E0,6.653633486E-3,-3.025349379E-3,-9.968844876E-3,1.236128818E-2
8.418264208E0,-6.349208253E-3,4.010605216E-3,1.067767359E-2,1.305412245E-2
8.428226208E0,-5.499598682E-3,2.048045754E-2,-6.148347259E-3,2.207933198E-2
8.438188208E0,1.291769623E-2,1.922564507E-3,-1.863039851E-2,2.275203021E-2
8.448151208E0,5.891983397E-3,7.619506717E-3,-3.027688265E-2,3.177203131E-2
8.458113208E0,-4.473983352E-3,1.495249987E-2,-2.844955467E-2,3.244951371E-2
8.468075208E0,8.735699072E-3,2.048338115E-2,-2.565348923E-2,3.397032310E-2
8.478038208E0,3.853315115E-4,1.060100198E-2,-1.124478042E-2,1.545881011E-2
8.488000208E0,8.475557361E-3,1.598628759E-2,-1.583835304E-2,2.404682704E-2
8.497962208E0,6.408274267E-4,1.164356053E-2,-4.130984768E-3,1.237126496E-2
8.507925208E0,-3.417642731E-3,9.995230436E-3,-2.462335601E-3,1.084656673E-2
8.517887208E0,-4.631360248E-4,1.194235325E-2,-3.970186338E-3,1.259351721E-2
8.527849208E0,1.117694358E-2,-4.528083801E-3,-1.034547865E-2,1.588888100E-2
8.537812208E0,4.235188547E-3,2.525997162E-4,2.678024769E-4,4.251158290E-3
8.547774208E0,2.731645564E-3,2.091081262E-2,-7.673228011E-3,2.244108731E-2
8.557736208E0,6.096261358E-3,1.252765954E-2,-1.844855011E-2,2.311829702E-2
8.567699208E0,1.189168804E-2,1.102843344E-2,-3.028857708E-4,1.622129244E-2
8.577661208E0,3.457161686E-3,3.391969800E-3,-2.093368985E-2,2.148666556E-2
8.587623208E0,6.185358306E-3,1.372049153E-2,-2.063314296E-2,2.553893368E-2
8.597586208E0,8.394852080E-3,1.581613362E-2,-9.250879884E-3,2.015446359E-2
8.607548208E0,-2.466465198E-3,2.210130572E-2,-7.442920804E-3,2.345097515E-2
8.617510208E0,-1.374072838E-3,8.483140469E-3,-1.616630875E-2,1.830850313E-2
8.627472208E0,-3.291571280E-4,1.701949060E-2,-7.846378684E-3,1.874398739E-2
8.637435208E0,6.100094025E-3,6.091629267E-3,-1.412511885E-2,1.654805357E-2
8.647397208E0,9.087564410E-3,2.151599944E-2,-1.466839828E-2,2.758049975E-2
8.657359208E0,-9.968547947E-3,1.208911836E-2,-5.895747542E-3,1.674152233E-2
8.667322208E0,4.441755144E-3,6.402116418E-3,-2.208084047E-2,2.341537527E-2
8.677284208E0,9.690014916E-3,8.949748278E-3,-1.045716047E-2,1.683290196E-2
8.687246208E0,8.643408995E-3,1.569275737E-2,-3.742218018E-4,1.791957574E-2
8.697209208E0,9.333476373E-3,-4.667832255E-3,3.573233485E-3,1.103043230E-2
8.707171208E0,-3.056568028E-3,1.105006814E-2,5.805115700E-3,1.285091368E-2
8.717133208E0,1.366723162E-2,6.106247306E-3,2.124878168E-3,1.511934468E-2
8.727096208E0,1.753782799E-2,6.405040026E-3,1.276505649E-2,2.261739631E-2
8.737058208E0,-8.488814095E-3,2.512548566E-3,-3.400082812E-3,9.483323688E-3
8.747020208E0,8.927853196E-3,1.718672097E-2,-3.763194904E-3,1.972945960E-2
8.756983208E0,1.004937657E-2,7.610151172E-3,-5.459033623E-3,1.373700908E-2
8.766945208E0,-5.171907926E-4,8.950917721E-3,-4.021641836E-3,9.826495683E-3
8.776907208E0,7.873042901E-3,4.153862000E-3,-4.814524278E-3,1.012022816E-2
8.786870208E0,8.611167083E-4,9.537393451E-3,-3.406003118E-3,1.016386998E-2
8.796832208E0,-6.043709507E-3,7.436488867E-3,-1.544490851E-2,1.817616545E-2
8.806794208E0,6.575755882E-3,9.838525057E-3,-1.930048943E-2,2.263947952E-2
8.816757208E0,-8.274541050E-3,2.181830049E-2,-1.217448771E-2,2.631965837E-2
8.826719208E0,-4.858017513E-3,2.316608369E-2,-9.188241586E-3,2.539077689E-2
8.836681208E0,-8.177860994E-3,6.400946975E-3,-4.245005473E-3,1.121916236E-2
8.846643208E0,-3.271416659E-3,1.493261933E-2,-2.669312418E-2,3.076049683E-2
8.856606208E0,7.562989723E-3,-1.981036663E-3,-2.879687928E-2,2.983929583E-2
8.866568208E0,5.556019745E-3,1.254286230E-2,-9.542655945E-3,1.671092554E-2
8.876530208E0,1.143719950E-3,1.000458598E-2,-5.883980021E-3,1.166280656E-2
8.886493208E0,1.688753539E-2,9.259065986E-3,-5.480595231E-3,2.002388770E-2
8.896455208E0,7.687754687E-3,1.150673568E-2,6.605014801E-3,1.533403922E-2
8.906417208E0,1.041212321E-2,2.004483998E-2,-1.560037136E-3,2.264159083E-2
8.916380208E0,8.313173787E-3,5.220394135E-3,6.143596396E-3,1.158037780E-2
8.926342208E0,1.314137050E-2,-5.855401754E-3,1.002030037E-2,1.753247752E-2
8.936304208E0,1.439400855E-2,5.064858198E-3,4.883082882E-3,1.602138474E-2
8.946267208E0,-3.545961706E-3,7.908943892E-3,-1.204467952E-2,1.483912203E-2
8.956229208E0,-4.789965972E-3,3.066279888E-2,-5.167769194E-3,3.146199052E-2
8.966191208E0,-2.762156152E-3,-4.070246816E-3,-1.242767215E-2,1.336575665E-2
8.976154208E0,-1.594432469E-2,-3.624104261E-3,-1.179726921E-2,2.016261844E-2
8.986116208E0,9.215440275E-3,6.706171632E-3,-2.483597539E-2,2.732622826E-2
8.996078208E0,-3.915693029E-3,2.601718605E-2,-2.486287259E-2,3.619929633E-2
9.006040208E0,1.973727643E-3,4.009435773E-2,-2.134935379E-2,4.546699935E-2
9.016003208E0,7.340594530E-3,9.712809920E-3,-1.199432038E-2,1.709054493E-2
9.025965208E0,-2.927668900E-3,2.073422670E-3,1.099788174E-3,3.752314058E-3
9.035927208E0,1.320105321E-2,-3.170945048E-3,-1.368906274E-3,1.364538760E-2
9.045890208E0,1.398513742E-2,1.616170406E-3,-1.030169763E-2,1.744480007E-2
9.055852208E0,1.532952650E-3,6.261198521E-3,-1.081391372E-2,1.258941145E-2
9.065814208E0,2.118743160E-3,1.644470930E-2,1.202012122E-2,2.047927857E-2
9.075777208E0,5.675819144E-3,1.076764762E-2,2.582642063E-3,1.244295778E-2
9.085739208E0,-6.921321759E-4,-8.845083117E-3,-9.481333271E-3,1.298499992E-2
9.095701208E0,3.301666863E-4,-1.814975739E-3,-1.030696012E-2,1.047074849E-2
9.105664208E0,-3.424444688E-3,1.599096537E-2,-1.971681118E-3,1.647195560E-2
9.115626208E0,3.097548787E-3,2.137858987E-2,-9.588191137E-3,2.363413469E-2
9.125588208E0,-7.693295837E-3,2.092367649E-2,-1.488218710E-2,2.680422600E-2
9.135551208E0,1.178476165E-2,1.628624976E-2,-6.996705160E-3,2.128559187E-2
9.145513208E0,5.313104480E-3,2.002905250E-2,-5.358461514E-3,2.140339069E-2
9.155475208E0,-1.084119463E-3,4.311736822E-3,-5.356780440E-3,6.961428453E-3
9.165438208E0,1.764237438E-3,7.309019566E-3,3.873122558E-3,8.457859014E-3
9.175400208E0,1.623218128E-2,1.793691874E-2,-1.289501086E-2,2.741346509E-2
9.185362208E0,7.636020533E-3,9.105868936E-3,4.469026923E-3,1.269637193E-2
9.195325208E0,1.330881100E-2,-1.484257221E-2,-9.622835889E-3,2.213651668E-2
9.205287208E0,1.809468392E-2,1.239375830E-2,2.155210599E-3,2.203787112E-2
9.215249208E0,-6.096421243E-3,8.350408673E-3,2.469206080E-3,1.062980036E-2
9.225211208E0,8.991729459E-3,1.388538301E-2,2.525924072E-3,1.673425685E-2
9.235174208E0,5.212267418E-3,3.548090458E-3,1.904949769E-3,6.586767884E-3
9.245136208E0,5.534942360E-3,6.990346313E-3,3.423033133E-3,9.550794958E-3
9.255098208E0,3.739280705E-3,5.478841066E-4,5.451359153E-3,6.633228008E-3
9.265061208E0,-3.005953068E-3,8.034659028E-3,-5.659520030E-3,1.027724022E-2
9.275023208E0,1.004471250E-2,1.955425858E-2,-2.637145422E-2,3.433247553E-2
9.284985208E0,4.355951822E-3,6.528416276E-3,-2.692935169E-2,2.804967946E-2
9.294948208E0,-3.436408639E-3,1.595705152E-2,-5.055575743E-3,1.708786831E-2
9.304910208E0,-7.899634028E-3,1.954080999E-2,8.079097867E-3,2.257253409E-2
9.314872208E0,1.671732659E-3,4.725134969E-3,3.103190437E-3,5.895030233E-3
9.324835208E0,1.087415374E-2,4.427511692E-3,-2.321344614E-4,1.174325193E-2
9.334797208E0,-6.665839548E-3,-4.108838439E-3,6.278813258E-3,1.003690521E-2
9.344759208E0,-6.000298499E-3,-1.121495962E-3,-8.161031976E-3,1.019135802E-2
9.354722708E0,4.731269977E-3,9.799348712E-3,-1.795570292E-2,2.099569999E-2
9.364684708E0,6.663770182E-3,1.473264456E-2,5.627945065E-3,1.712105179E-2
9.374646708E0,4.758007284E-3,1.922096729E-2,-6.315577626E-3,2.078390574E-2
9.384609708E0,1.109075197E-2,1.637688160E-2,-5.579413176E-3,2.055083652E-2
9.394571708E0,5.517903208E-3,-2.788537145E-3,-2.196725830E-3,6.561158403E-3
9.404533708E0,7.205035058E-3,2.011208296E-2,-4.424076453E-3,2.181698567E-2
9.414495708E0,8.133061272E-3,1.681483805E-2,-3.018405810E-3,1.892078851E-2
9.424458708E0,6.775063709E-3,9.477167130E-3,-2.003848113E-2,2.317884620E-2
9.434420708E0,3.361788117E-3,5.139117837E-3,-5.561944619E-3,8.285371412E-3
9.444382708E0,-1.424601917E-2,1.636577189E-2,-1.842457652E-2,2.846493583E-2
9.454345708E0,6.345658810E-3,2.070791423E-2,-4.087203741E-3,2.204065181E-2
9.464307708E0,1.482799072E-3,-2.939980030E-3,-4.276580438E-3,5.397343412E-3
9.474269708E0,-5.395257859E-3,-1.491156936E-2,-7.024844885E-3,1.734393709E-2
9.484232708E0,3.692347663E-3,1.727384448E-2,-4.805168733E-3,1.830597665E-2
9.494194708E0,3.303037304E-3,7.997821569E-3,6.794537678E-3,1.100186110E-2
9.504156708E0,8.810474910E-3,6.952924132E-3,-4.327670485E-4,1.123187026E-2
9.514119708E0,4.993353146E-3,1.967763484E-2,-4.033409357E-3,2.069809845E-2
9.524081708E0,2.023999994E-3,7.850471735E-3,-1.568522908E-2,1.765652553E-2
9.534043708E0,2.510575131E-3,4.857282043E-3,-1.323882714E-3,5.625730332E-3
9.544006708E0,5.961195244E-3,1.203824759E-2,-1.698564984E-2,2.165565871E-2
9.553968708E0,5.454214239E-3,2.011734545E-2,-7.797773704E-3,2.225446732E-2
9.563930708E0,1.175696910E-3,2.281057298E-2,-7.343445048E-3,2.399230477E-2
9.573893708E0,4.076299598E-3,1.682302415E-2,-1.812629543E-2,2.506377757E-2
9.583855708E0,1.989410059E-3,2.087455988E-4,-1.663817905E-2,1.675799299E-2
9.593817708E0,4.885097430E-3,9.634457231E-3,1.842603832E-4,1.080374449E-2
9.603779708E0,1.727897907E-4,-6.086366773E-3,-1.264043771E-2,1.403048047E-2
9.613742708E0,-5.324543095E-3,1.681016028E-2,-8.818332106E-4,1.765530735E-2
9.623704708E0,2.429038449E-3,8.569679260E-3,-6.165304184E-3,1.083284848E-2
9.633666708E0,8.810132300E-3,1.425843537E-2,-1.006364286E-2,1.954989304E-2
9.643629708E0,-7.348561361E-3,1.186517000E-2,-6.639513373E-3,1.545531466E-2
9.653591708E0,9.029407455E-3,7.225404382E-3,-3.352281824E-3,1.204053408E-2
9.663553708E0,9.332567314E-4,1.066707551E-2,-7.671035305E-3,1.317202531E-2
9.673516708E0,6.409653844E-3,1.051738679E-2,-1.441521384E-2,1.896041870E-2
9.683478708E0,5.547326580E-3,2.383909822E-2,-1.006539702E-2,2.646483805E-2
9.693440708E0,1.175269333E-2,1.246275544E-2,1.002139673E-3,1.715955587E-2
9.703403708E0,9.960754705E-3,6.023216844E-3,-4.791793227E-3,1.258797274E-2
9.713365708E0,6.518987641E-3,-4.604682326E-3,-4.194865599E-3,9.016495804E-3
9.723327708E0,1.422399161E-3,1.575532258E-2,-3.932252526E-3,1.630079810E-2
9.733290708E0,-6.737856232E-3,1.201135039E-2,6.429086700E-3,1.519882892E-2
9.743252708E0,1.640913265E-2,6.326687336E-3,-6.478714943E-4,1.759847563E-2
9.753214708E0,-1.529339254E-2,9.917462468E-3,-1.065655053E-2,2.111411817E-2
9.763177708E0,8.037806475E-3,8.268547654E-3,-7.328315377E-3,1.366306772E-2
9.773139708E0,8.772486281E-3,3.475584984E-3,-5.790497661E-3,1.107095613E-2
9.783101708E0,6.871286952E-3,1.170612574E-2,-8.204374462E-4,1.359856911E-2
9.793064708E0,-7.998753469E-3,9.614576697E-3,-9.261404872E-3,1.556257570E-2
9.803026708E0,-4.278494488E-3,-2.652297020E-3,-1.132605672E-3,5.159747103E-3
9.812988708E0,-1.508990487E-2,1.546237707E-2,-1.163895585E-2,2.454089702E-2
9.822950708E0,6.771263019E-3,2.144992590E-2,-9.101264253E-3,2.426483742E-2
9.832913708E0,-9.005566346E-3,4.685958624E-3,-6.415053383E-3,1.200880274E-2
9.842875708E0,-6.323462231E-3,3.938099742E-3,-9.869515300E-3,1.236536034E-2
9.852837708E0,-2.267120825E-3,2.591485977E-3,-2.099150419E-3,4.032625558E-3
9.862800708E0,-6.825642125E-3,1.202362955E-2,-9.156228080E-3,1.658293010E-2
9.872762708E0,6.545418883E-3,7.834684253E-3,3.824079037E-4,1.021621366E-2
9.882724708E0,2.237574114E-3,1.233002365E-2,-6.123862043E-3,1.394768466E-2
9.892687708E0,2.191193816E-2,9.490615726E-3,-8.725726828E-3,2.542327928E-2
9.902649708E0,1.726120444E-2,1.710310578E-3,-1.520868100E-2,2.306899042E-2
9.912611708E0,-2.889511250E-3,1.024022877E-2,8.167902455E-3,1.341365689E-2
9.922574708E0,8.205000297E-3,1.936539352E-2,-1.105701171E-2,2.376127109E-2
9.932536708E0,4.916558191E-3,-2.642941475E-3,-3.523532152E-3,6.600981966E-3
9.942498708E0,-3.540064241E-3,6.488070488E-3,-1.271111593E-3,7.499522529E-3
9.952461708E0,7.336291345E-4,3.344607353E-3,-9.788239002E-4,3.561278742E-3
9.962423708E0,-7.454861915E-3,1.292702436E-2,-4.466761127E-3,1.557674164E-2
9.972385708E0,6.127996207E-3,1.532496750E-2,-2.405032888E-3,1.667906321E-2
9.982348708E0,-6.337591480E-3,4.546794891E-3,3.747407421E-3,8.653408111E-3
9.992310708E0,1.532845299E-2,1.727442920E-2,-4.542774931E-3,2.353729338E-2
1.000227271E1,-5.912608537E-3,2.456415296E-3,-2.315497398E-3,6.808409801E-3
1.001223571E1,8.057549964E-3,1.727092087E-2,7.333577871E-3,2.042033750E-2
1.002219771E1,3.969880273E-3,2.595228195E-2,1.504415497E-3,2.629722711E-2
1.003215971E1,-1.146593308E-3,4.991183281E-3,6.782039255E-4,5.165902373E-3
1.004212271E1,1.049154941E-2,-6.386913657E-3,-1.950280309E-2,2.304831021E-2
1.005208471E1,2.225628435E-3,9.628025293E-3,1.630203724E-3,1.001548088E-2
1.006204671E1,4.683172060E-3,4.542701840E-3,-6.960452422E-3,9.540237863E-3
1.007200871E1,3.807090134E-3,1.038348556E-2,-1.358775973E-2,1.751964389E-2
1.008197171E1,6.535716159E-3,2.446475029E-3,5.209869146E-4,6.998017801E-3
1.009193371E1,4.368167021E-3,8.432269692E-3,-7.525366545E-3,1.211673211E-2
1.010189571E1,6.064398601E-3,9.181298018E-3,-7.541811839E-3,1.333986842E-2
1.011185871E1,-5.107926596E-3,7.979695201E-3,-8.690716624E-3,1.285671051E-2
1.012182071E1,6.321557318E-3,2.204809606E-2,-6.109170914E-3,2.373610322E-2
1.013178271E1,7.804753818E-3,7.383279204E-3,-9.327039868E-4,1.078410547E-2
1.014174571E1,6.022175308E-3,8.582543135E-3,6.825966462E-3,1.251081373E-2
1.015170771E1,2.048672503E-3,1.321938515E-2,-7.645234466E-3,1.540775171E-2
1.016166971E1,6.117571718E-3,9.780052900E-3,-3.049980775E-3,1.193216247E-2
1.017163271E1,4.987505930E-3,1.249549985E-3,-1.564429857E-2,1.646756413E-2
1.018159471E1,3.635264221E-3,5.295823216E-3,-1.181605339E-2,1.344916381E-2
1.019155671E1,-7.471060529E-3,2.011091352E-2,-8.627055064E-3,2.312340085E-2
1.020151971E1,8.963142056E-4,8.587805629E-3,-7.368953526E-4,8.665840954E-3
1.021148171E1,1.937447954E-2,2.101606250E-2,2.358108982E-3,2.868110909E-2
1.022144371E1,1.422716647E-2,1.832517385E-2,-1.416663408E-2,2.718304221E-2
1.023140671E1,7.779683881E-3,8.147510290E-3,-1.731250919E-2,2.065498438E-2
1.024136871E1,7.304497110E-4,1.069397271E-2,-6.112752333E-3,1.233938208E-2
1.025133071E1,1.882691064E-2,6.665825844E-4,-1.795862652E-2,2.602708518E-2
1.026129371E1,9.203069760E-3,1.578105032E-2,6.499107108E-3,1.939011180E-2
1.027125571E1,1.100720074E-3,7.995482683E-3,1.583352908E-3,8.224739172E-3
1.028121771E1,3.286651396E-3,9.642643332E-3,-1.113843419E-2,1.509461374E-2
1.029117971E1,2.216090164E-3,1.592606127E-2,-5.252042189E-3,1.691550858E-2
1.030114271E1,-1.620318275E-5,1.937007129E-2,-8.113669530E-3,2.100075136E-2
1.031110471E1,-5.186991915E-3,-1.581087112E-3,6.461173296E-4,5.460969620E-3
1.032106671E1,6.451411187E-3,1.158976614E-2,-1.235692084E-2,1.812834461E-2
1.033102971E1,8.868937930E-3,1.877248585E-2,-1.560621858E-2,2.597341609E-2
1.034099171E1,1.725912137E-2,2.026995778E-2,-5.864172578E-3,2.726053886E-2
1.035095300E1,1.563340813E-2,7.393804193E-3,7.355285659E-3,1.879287145E-2
1.036091600E1,1.483866645E-2,9.793501496E-3,-4.979561940E-3,1.846333477E-2
1.037087800E1,1.486234311E-3,2.057108939E-2,-4.682523385E-3,2.114957768E-2
1.038084000E1,5.842556152E-4,1.857660413E-3,1.640655622E-3,2.546371478E-3
1.039080300E1,-1.768164209E-2,8.293105960E-3,-1.001518406E-2,2.194812031E-2
1.040076500E1,-9.273560685E-3,7.990804911E-3,-2.943488359E-3,1.259031432E-2
1.041072700E1,1.374954488E-3,9.635041952E-3,7.121323943E-3,1.205975903E-2
1.042069000E1,5.227936129E-3,1.951449752E-2,-1.577688418E-2,2.563312318E-2
1.043065200E1,4.917549477E-3,2.026177168E-2,-7.239437699E-3,2.207104761E-2
1.044061400E1,-8.426043321E-3,5.746643543E-3,9.769527912E-3,1.412323595E-2
1.045057700E1,-6.099879323E-3,2.100846112E-2,-8.548117653E-3,2.348689596E-2
1.046053900E1,1.572594489E-2,8.427007198E-3,-1.547582567E-2,2.361823391E-2
1.047050100E1,-4.074801248E-3,-6.093968153E-3,-1.380293727E-2,1.562886849E-2
1.048046400E1,-1.194799947E-2,8.429346085E-3,9.576277435E-4,1.465351895E-2
1.049042600E1,6.906064181E-4,1.411576331E-2,-6.205065250E-3,1.543484842E-2
1.050038800E1,-5.227776244E-3,6.182261109E-3,-3.953887224E-3,9.010173198E-3
1.051035100E1,3.472236539E-3,-3.547505736E-3,-7.090260610E-3,8.655230734E-3
1.052031300E1,8.719710591E-3,1.979984164E-2,-5.239689946E-3,2.226031070E-2
1.053027500E1,-7.563236402E-3,2.070148230E-2,-4.098386541E-3,2.241764230E-2
1.054023700E1,-3.455412090E-3,1.382223308E-2,-8.527652398E-3,1.660466367E-2
1.055020000E1,5.599741386E-3,1.651487589E-2,-7.310335189E-3,1.890870778E-2
1.056016200E1,-9.766969755E-3,1.277616620E-2,-5.560702085E-3,1.701603740E-2
1.057012400E1,1.491588168E-3,9.478336573E-4,-1.062205195E-2,1.076806443E-2
1.058008700E1,-7.708087466E-3,9.475412965E-3,-3.359810114E-3,1.266832219E-2
1.059004900E1,-2.250223286E-3,7.672131658E-3,-9.090154544E-3,1.210603232E-2
1.060001100E1,1.231650653E-2,1.665111601E-2,7.550509572E-3,2.204464090E-2
1.060997400E1,-4.637070419E-4,1.051387846E-2,9.059602842E-3,1.388643468E-2
1.061993600E1,1.282397632E-2,7.968585491E-3,7.870863900E-3,1.702654463E-2
1.062989800E1,4.677388798E-3,-3.554522395E-3,1.840630397E-3,6.156339472E-3
1.063986100E1,1.070040464E-3,7.069283724E-3,-7.675713077E-3,1.048982031E-2
1.064982300E1,2.261355836E-3,1.394560933E-2,-3.056339622E-3,1.445458272E-2
1.065978500E1,2.769067744E-4,3.161589503E-3,-3.691274151E-3,4.868041743E-3
1.066974800E1,8.125893865E-4,1.902333140E-2,-1.109750368E-2,2.203864849E-2
1.067971000E1,4.929618496E-3,2.051846445E-2,-1.960461773E-2,2.880363793E-2
1.068967200E1,6.197701413E-3,1.932036996E-2,-8.817016482E-3,2.212301918E-2
1.069963500E1,5.671479413E-4,3.451026678E-3,-1.251654983E-2,1.299597097E-2
1.070959700E1,-3.055974171E-3,2.830344737E-2,-2.021046236E-2,3.491256077E-2
1.071955900E1,3.724722052E-4,2.036994517E-2,-2.991435528E-3,2.059179662E-2
1.072952200E1,2.630758253E-3,1.797317147E-2,-5.216885805E-3,1.889898620E-2
1.073948400E1,7.205300010E-3,1.213238776E-2,-2.320759892E-3,1.430024851E-2
1.074944600E1,6.561256615E-3,4.650290608E-3,4.386069551E-3,9.160398311E-3
1.075940800E1,2.996775680E-3,4.204732776E-3,3.282042146E-3,6.118189507E-3
1.076937100E1,2.637012033E-3,8.095470071E-3,1.437596440E-2,1.670804658E-2
1.077933300E1,1.709803058E-2,1.958232522E-3,4.057309851E-3,1.768160308E-2
1.078929500E1,2.590284557E-3,-2.238898873E-3,8.028738722E-3,8.728280914E-3
1.079925800E1,1.194476066E-2,5.994565487E-3,-1.158918142E-2,1.768958023E-2
1.080922000E1,-7.866039947E-3,2.620429695E-2,-1.850000560E-2,3.302710963E-2
1.081918200E1,-8.492418355E-3,1.976417363E-2,-1.590683855E-2,2.675390142E-2
1.082914500E1,-1.892981250E-3,8.393093348E-3,-3.258141652E-3,9.200156573E-3
1.083910700E1,2.760662371E-3,1.527760506E-2,-8.326435089E-3,1.761692352E-2
1.084906900E1,6.718930439E-3,1.872395396E-2,1.357065663E-3,1.993921025E-2
1.085903200E1,-6.013815617E-3,6.448309422E-3,-3.872026205E-3,9.630122513E-3
1.086899400E1,8.164846371E-3,6.599167585E-3,-1.660090305E-2,1.964188665E-2
1.087895600E1,6.064362056E-3,3.308354616E-3,-1.050342657E-2,1.257154195E-2
1.088891900E1,-9.797101188E-3,9.444422722E-3,1.796337739E-3,1.372614809E-2
1.089888100E1,2.490557553E-3,-1.031273425E-2,-1.983960271E-3,1.079312109E-2
1.090884300E1,-3.279040880E-3,4.363777041E-3,-8.808830380E-3,1.036292197E-2
1.091880600E1,-1.918740976E-3,1.245047629E-2,-3.767361045E-3,1.314872374E-2
1.092876800E1,1.105470480E-2,-4.180759192E-4,-1.565950133E-2,1.917293059E-2
1.093873000E1,5.591226378E-3,6.170566678E-3,-1.044838965E-2,1.336063441E-2
1.094869300E1,1.459281845E-2,3.932837248E-3,1.458295584E-2,2.100190848E-2
1.095865500E1,6.325814822E-3,5.579413176E-3,-8.463771567E-3,1.194910933E-2
1.096861700E1,-1.022170954E-3,1.426311314E-2,-5.640882030E-3,1.537207793E-2
1.097858000E1,1.130152582E-2,1.066590607E-2,-8.425837755E-3,1.767712590E-2
1.098854200E1,5.979257659E-3,2.427179217E-3,-9.085915312E-3,1.114435185E-2
1.099850400E1,-2.138623693E-3,-5.959482193E-3,-4.547379613E-3,7.795370463E-3
1.100846600E1,-1.938330975E-2,1.409120500E-2,-3.384368420E-3,2.420183268E-2
1.101842900E1,-1.025533560E-2,2.187443376E-2,5.165430307E-3,2.470514988E-2
1.102839100E1,-5.875734533E-3,1.528696060E-2,-1.247737348E-2,2.058883847E-2
1.103835300E1,-5.198453371E-3,8.849176168E-3,-1.919472791E-2,2.176624487E-2
1.104831600E1,-3.514112653E-3,2.980150402E-2,-1.762877047E-2,3.480304840E-2
1.105827800E1,-2.573158611E-3,1.767496347E-2,-1.670374095E-2,2.445486538E-2
1.106824000E1,-7.581399316E-3,1.662538826E-2,-1.293287158E-2,2.238616354E-2
1.107820300E1,-4.685081542E-4,1.873097062E-2,9.082480073E-3,2.082210855E-2
1.108816500E1,-5.403704345E-3,9.902844429E-3,-1.701020814E-2,2.041111289E-2
1.109812700E1,-9.050343228E-3,1.828599751E-2,-1.852573335E-2,2.755883186E-2
1.110809000E1,6.768033346E-3,9.453193545E-3,-1.289237961E-3,1.169749025E-2
1.111805200E1,-1.193243125E-3,1.693470597E-2,-8.285504580E-3,1.889067711E-2
1.112801400E1,-5.210970067E-3,1.214875996E-2,5.585772023E-3,1.435086850E-2
1.113797700E1,1.404976286E-4,-1.176459789E-3,-5.754829645E-3,5.875530739E-3
1.114793900E1,3.114058035E-3,1.004902482E-2,6.537698731E-3,1.238635386E-2
1.115790100E1,8.899558154E-3,1.677741587E-2,-9.846711159E-4,1.901718685E-2
1.116786400E1,4.076861478E-3,1.781880498E-2,-1.632469520E-3,1.835199082E-2
1.117782600E1,5.736452029E-3,2.253516912E-3,-7.218387723E-3,9.491593211E-3
1.118778800E1,-2.127217054E-3,1.272588015E-2,-2.388594903E-2,2.714795828E-2
1.119775100E1,-4.236522443E-3,1.944783926E-3,-9.913369417E-3,1.095468850E-2
1.120771300E1,-4.328574976E-3,6.431352496E-3,-1.389707744E-2,1.591312721E-2
1.121767500E1,-5.382745732E-3,2.904370487E-2,-1.267676353E-2,3.214360088E-2
1.122763800E1,-9.513419867E-4,8.987170458E-3,1.513785660E-2,1.763034279E-2
1.123760000E1,-1.007572101E-2,6.028479338E-4,-1.986591518E-2,2.228313635E-2
1.124756200E1,-4.266864010E-3,1.213180304E-2,-4.177835584E-3,1.352187426E-2
1.125752400E1,6.741501605E-3,1.078343511E-2,7.656928897E-3,1.484448978E-2
1.126748700E1,-1.572576673E-3,5.240859389E-3,-8.158035278E-3,9.823092392E-3
1.127744900E1,4.366887943E-3,5.542575717E-3,4.989429116E-3,8.642005484E-3
1.128741100E1,-1.642076313E-3,1.062789917E-2,1.551441729E-2,1.887712370E-2
1.129737400E1,-1.337559717E-3,6.434860826E-3,-5.417445302E-3,8.517347794E-3
1.130733600E1,4.213046785E-3,-5.540821552E-3,-6.600921750E-3,9.592842886E-3
1.131729800E1,-2.074751998E-3,-1.018468022E-2,4.970718026E-3,1.152129961E-2
1.132726100E1,5.390584655E-3,-2.007699966E-2,-1.876298413E-3,2.087258523E-2
1.133722300E1,-1.441201614E-3,-3.023010492E-3,1.758082330E-2,1.789695512E-2
1.134718500E1,-2.730905525E-3,2.361164153E-2,4.699991941E-3,2.422926711E-2
1.135714821E1,-8.748914693E-3,4.920315027E-2,-7.792072669E-3,5.057874951E-2
1.136711021E1,6.705417889E-3,3.398401737E-3,-3.451026678E-3,8.271719807E-3
1.137707221E1,-1.062598969E-2,-7.536476254E-3,-1.023328520E-2,1.656593665E-2
1.138703521E1,1.778540276E-3,1.437245607E-3,-1.431639589E-2,1.449786439E-2
1.139699721E1,-1.545583550E-3,2.808125317E-2,-2.672521077E-2,3.879668155E-2
1.140695921E1,-1.419834609E-2,4.094980538E-2,-1.317911245E-2,4.530086751E-2
1.141692221E1,-1.655865235E-2,1.954490304E-2,-2.682000875E-2,3.708780220E-2
1.142688421E1,7.556439014E-3,2.314795732E-2,-3.504945315E-2,4.267776781E-2
1.143684621E1,4.556378843E-3,6.837733984E-3,-1.313343108E-2,1.549200458E-2
1.144680921E1,-1.437135972E-5,1.941860318E-2,-1.532387115E-2,2.473668092E-2
1.145677121E1,3.610180579E-3,1.672362149E-2,-1.935779214E-2,2.583480281E-2
1.146673321E1,2.431984898E-4,-5.572981238E-3,-7.027841583E-3,8.972615154E-3
1.147669621E1,-6.406026743E-3,1.044897437E-2,8.327019811E-3,1.481747289E-2
1.148665821E1,1.984805376E-3,1.973259866E-2,7.076227292E-3,2.105677789E-2
1.149662021E1,-1.023068593E-2,-2.268719673E-3,6.298547611E-3,1.222643552E-2
1.150658321E1,1.349192935E-2,-1.799071312E-2,-4.860863462E-3,2.300708390E-2
1.151654521E1,2.821121668E-3,-1.829593778E-3,1.647219121E-2,1.681187748E-2
1.152650721E1,8.157747486E-3,-4.225198030E-3,-6.112679243E-3,1.103476280E-2
1.153647021E1,-1.843074351E-3,3.095340550E-2,-5.392375365E-3,3.147360715E-2
1.154643221E1,-1.027048811E-2,7.604888678E-3,-4.234626666E-3,1.346288680E-2
1.155639421E1,5.804814203E-3,-9.244447947E-4,7.093184218E-3,9.212151131E-3
1.156635621E1,-5.903348923E-3,6.109170914E-3,-1.552435756E-3,8.636061286E-3
1.157631921E1,-6.822161204E-3,2.781637430E-2,-2.643401943E-2,3.897499129E-2
1.158628121E1,-1.128093723E-2,3.066513777E-2,-1.302876592E-2,3.517611349E-2
1.159624321E1,-6.517101000E-3,1.136114001E-2,-2.059681714E-2,2.440854326E-2
1.160620621E1,-5.958641656E-3,-1.094014049E-2,-2.750347517E-2,3.019326466E-2
1.161616821E1,1.001541247E-3,3.726430535E-3,5.620855317E-3,6.817872388E-3
1.162613021E1,5.713008349E-3,1.660316885E-2,4.100359976E-5,1.755862641E-2
1.163609321E1,-9.341657907E-4,3.038447142E-2,-5.036791563E-3,3.081327698E-2
1.164605521E1,7.893905584E-3,7.789075971E-3,9.991429746E-5,1.109024043E-2
1.165601721E1,-7.906897366E-3,-1.047470212E-2,-5.106446519E-3,1.408240770E-2
1.166598021E1,-1.996741919E-3,-1.107053339E-2,1.291576847E-3,1.132306755E-2
1.167594221E1,7.735455176E-4,-1.421165764E-2,7.542323470E-3,1.610764505E-2
1.168590421E1,1.212775110E-2,4.053874612E-3,3.462648019E-3,1.324787445E-2
1.169586721E1,5.311829969E-4,5.108127594E-3,-7.545758709E-3,9.127628246E-3
1.170582921E1,-6.023733043E-3,1.962384045E-2,-6.122765690E-4,2.053668319E-2
1.171579121E1,-8.725676578E-3,2.008167744E-2,4.810431227E-3,2.241765931E-2
1.172575421E1,-3.062744150E-3,-1.105474591E-2,-8.194945827E-3,1.409769293E-2
1.173571621E1,-1.169825940E-2,-2.887062728E-2,-9.939681888E-3,3.269800711E-2
1.174567821E1,-1.453348291E-3,-4.328693748E-3,-1.237036943E-2,1.318619925E-2
1.175564121E1,9.011564311E-5,3.922487676E-2,-2.406129241E-3,3.929870908E-2
1.176560321E1,-9.581485111E-3,6.946667612E-2,-2.416829646E-2,7.417230279E-2
1.177556521E1,-1.140486165E-2,4.504110217E-3,-2.733748734E-2,2.996157693E-2
1.178552821E1,-1.310187895E-2,-3.125336766E-3,-3.055637956E-2,3.339340195E-2
1.179549021E1,4.387613581E-3,3.602469563E-3,-3.866880655E-2,3.908331537E-2
1.180545221E1,-5.118748513E-3,1.287966192E-2,-3.083704591E-2,3.380844093E-2
1.181541521E1,-5.856922944E-3,2.111604989E-2,-1.158274949E-2,2.478610891E-2
1.182537721E1,3.577719396E-3,6.157702804E-3,1.745320782E-3,7.332361456E-3
1.183533921E1,-6.915067979E-3,4.819275141E-3,-6.297451258E-4,8.452227929E-3
1.184530121E1,-3.412005650E-3,-1.134359837E-4,4.795447737E-4,3.447406774E-3
1.185526421E1,-9.339054069E-4,-9.399983883E-3,2.062079072E-2,2.268146570E-2
1.186522621E1,-6.184252817E-3,-8.800059557E-4,2.485073961E-2,2.562379076E-2
1.187518821E1,-1.537470538E-3,-1.256391227E-2,3.633225918E-2,3.847400115E-2
1.188515121E1,7.198845232E-3,-1.451805174E-2,1.324752487E-2,2.093069789E-2
1.189511321E1,1.411433348E-2,4.931541681E-3,7.848059759E-3,1.688569083E-2
1.190507521E1,2.400841165E-2,-1.516767740E-3,-1.817555822E-2,3.015054446E-2
1.191503821E1,1.036155850E-2,8.198381066E-3,-4.196035042E-3,1.386297431E-2
1.192500021E1,3.472597422E-3,2.885133147E-2,-8.183251396E-3,3.018979735E-2
1.193496221E1,2.019660263E-3,1.223646820E-2,-2.285391547E-2,2.600214671E-2
1.194492521E1,-1.039726306E-3,1.163303554E-2,-2.474490501E-2,2.736272776E-2
1.195488721E1,-2.631598790E-3,2.885016203E-2,-3.587559164E-2,4.611198582E-2
1.196484921E1,-1.010117011E-2,9.095343947E-3,-3.458803475E-2,3.716303361E-2
1.197481221E1,-9.814144908E-3,2.092133760E-2,-2.410748541E-2,3.339447051E-2
1.198477421E1,-4.760035537E-3,4.098430395E-2,-1.234179117E-2,4.306612262E-2
1.199473621E1,2.891333937E-3,1.014784276E-2,-1.249206461E-2,1.635207030E-2
1.200469921E1,-7.955584573E-3,5.515678525E-3,-7.059928179E-3,1.198151165E-2
1.201466121E1,-8.294777898E-3,-7.961568832E-3,1.755801916E-2,2.098747139E-2
1.202462321E1,-1.287809048E-2,4.204148054E-4,8.431100249E-3,1.539822764E-2
1.203458621E1,8.448513988E-3,-6.373465061E-4,1.712188996E-2,1.910347390E-2
1.204454821E1,6.042791312E-3,-9.922140241E-3,3.110017061E-2,3.319916875E-2
1.205451021E1,5.350430729E-4,-1.591436684E-2,1.424666785E-2,2.136634943E-2
1.206447321E1,4.259938714E-3,-6.790371537E-3,7.896080017E-3,1.125185776E-2
1.207443521E1,4.619620135E-4,1.909876049E-2,9.695414454E-4,1.912893284E-2
1.208439721E1,-6.157437852E-4,1.355150700E-2,9.638550282E-3,1.664103764E-2
1.209436021E1,4.020545483E-3,5.164845586E-3,-1.666514933E-2,1.790440220E-2
1.210432221E1,1.461598347E-3,1.579157531E-2,-2.548158109E-2,3.001368181E-2
1.211428421E1,-7.005284121E-3,1.863449156E-2,-1.378824614E-2,2.421639967E-2
1.212424721E1,-1.251536211E-2,3.135510921E-2,-3.005929314E-2,4.520329929E-2
1.213420921E1,2.611887278E-3,1.563077688E-2,-7.223065495E-3,1.741596441E-2
1.214417121E1,1.233689412E-3,1.608042777E-2,-2.159318268E-2,2.695120934E-2
1.215413421E1,1.170706677E-2,1.967763484E-2,-1.162368000E-2,2.567829164E-2
1.216409621E1,2.615011884E-3,1.669146180E-2,-1.054837704E-2,1.991761638E-2
1.217405821E1,-8.246954069E-3,1.070859075E-2,-3.576084003E-3,1.398122112E-2
1.218402021E1,-3.321752963E-3,9.875947237E-4,-4.890026450E-3,5.993475183E-3
1.219398321E1,-1.535250423E-3,-2.901388407E-3,1.093546271E-2,1.141750381E-2
1.220394521E1,2.968000984E-3,-8.439871073E-3,1.856841803E-2,2.061132217E-2
1.221390721E1,1.485449048E-2,2.937641144E-3,1.466532849E-2,2.107978849E-2
1.222387021E1,-1.090039769E-3,8.419990540E-4,1.526759170E-2,1.532959574E-2
1.223383221E1,3.032580740E-3,-3.206028342E-3,8.933302984E-3,9.963888090E-3
1.224379421E1,1.480609107E-2,1.571731567E-3,-2.413145900E-3,1.508356543E-2
1.225375721E1,-9.645242603E-3,-1.505131781E-2,1.671309650E-2,2.447244302E-2
1.226371921E1,3.144413307E-3,8.441625237E-3,-6.946492195E-4,9.034982525E-3
1.227368121E1,1.998628560E-3,1.127518594E-2,-1.819543876E-2,2.149879824E-2
1.228364421E1,-9.327058140E-3,2.429751992E-2,-2.791468062E-2,3.816533613E-2
1.229360621E1,3.967651022E-3,2.759125650E-2,-1.804275334E-2,3.320482853E-2
1.230356821E1,-1.951653034E-2,2.908989787E-2,-2.855027296E-2,4.519109647E-2
1.231353121E1,-7.525188387E-3,2.954071820E-2,-1.525370456E-2,3.408750497E-2
1.232349321E1,-1.827405640E-3,1.337258220E-2,-1.765274405E-3,1.361181691E-2
1.233345521E1,-8.718454354E-3,2.564705729E-2,-1.252999842E-2,2.984600232E-2
1.234341821E1,4.212334156E-3,2.999387741E-2,-1.440695465E-2,3.354007727E-2
1.235337988E1,-7.419760348E-3,2.457584739E-3,-1.554189920E-2,1.739664328E-2
1.236334188E1,5.776272481E-3,-9.359053373E-3,8.277903199E-3,1.376520560E-2
1.237330487E1,-6.763218530E-4,6.961694956E-3,1.824674807E-2,1.954140280E-2
1.238326688E1,2.016220456E-3,2.318421006E-3,2.636619173E-2,2.654460938E-2
1.239322888E1,-3.084488483E-3,4.708762765E-3,1.386192106E-2,1.496126236E-2
1.240319188E1,1.700827125E-3,-1.026010931E-2,1.835375212E-2,2.109556524E-2
1.241315388E1,-3.046714556E-3,6.373465061E-5,1.782976851E-2,1.808831603E-2
1.242311587E1,9.822833505E-3,1.233587086E-2,8.586563095E-3,1.795524530E-2
1.243307888E1,2.331919852E-3,5.730271339E-5,2.804909348E-3,3.648102281E-3
1.244304088E1,-1.136499552E-2,9.026346803E-3,7.173948884E-3,1.618961403E-2
1.245300287E1,1.879655994E-3,2.025183141E-2,-1.824799061E-2,2.732506072E-2
1.246296588E1,-1.349800040E-2,9.173696637E-3,3.479824215E-4,1.632402575E-2
1.247292788E1,-7.472604560E-3,1.696394205E-2,-1.186641254E-2,2.200970003E-2
1.248288988E1,8.518771939E-3,1.921395063E-2,-1.342337988E-2,2.493857457E-2
1.249285288E1,1.383366713E-2,1.397426069E-2,-2.044764005E-2,2.836822679E-2
1.250281487E1,3.764542504E-3,2.430687547E-2,-1.182372786E-2,2.729096033E-2
1.251277688E1,-9.878701824E-3,4.847341776E-3,7.935841084E-3,1.356698366E-2
1.252273888E1,-1.185164832E-2,1.652247727E-2,4.656137824E-3,2.085985240E-2
1.253270188E1,-1.488911239E-3,3.596037626E-4,7.009057403E-3,7.174472609E-3
1.254266388E1,1.348543346E-2,-3.384368420E-3,8.963781595E-4,1.393249292E-2
1.255262587E1,7.528180517E-3,8.431684971E-3,1.674057841E-2,2.019935095E-2
1.256258888E1,-9.944976359E-3,-1.432217002E-2,1.329656839E-3,1.748699792E-2
1.257255088E1,1.644758723E-2,6.186938882E-3,7.150633112E-3,1.897189743E-2
1.258251287E1,-3.389877593E-3,8.428176641E-3,5.259058848E-3,1.049681531E-2
1.259247588E1,2.370598270E-3,7.973847985E-3,8.475027457E-3,1.187552434E-2
1.260243788E1,8.831776134E-3,5.424461961E-3,1.293696463E-5,1.036461406E-2
1.261239988E1,-2.003342877E-3,9.321046472E-3,-1.263751410E-2,1.583041543E-2
1.262236288E1,2.319608722E-4,8.723461032E-3,-8.946239948E-5,8.727003022E-3
1.263232487E1,-4.334906414E-3,1.336965859E-2,-2.052613892E-2,2.487692833E-2
1.264228688E1,1.818666793E-3,6.185769439E-3,-4.822856560E-3,8.051784762E-3
1.265224988E1,-5.638342146E-3,5.435571671E-3,-1.122256100E-2,1.368510932E-2
1.266221188E1,-4.795114263E-3,-2.492668033E-3,-6.505612135E-3,8.457511689E-3
1.267217388E1,-7.707726583E-4,1.742528737E-2,-7.084559575E-3,1.882619756E-2
1.268213687E1,-1.606600159E-3,2.117919981E-2,-1.144541301E-2,2.412751848E-2
1.269209888E1,-1.102136653E-2,5.316288471E-3,1.933140658E-2,2.287873956E-2
1.270206088E1,-4.400655613E-3,5.022173524E-3,6.991442665E-3,9.667898804E-3
1.271202387E1,-5.749384426E-3,-5.294653773E-3,3.377936482E-3,8.514648245E-3
1.272198588E1,2.004187983E-3,-7.690842748E-3,2.203230858E-3,8.247427347E-3
1.273194787E1,1.030133218E-3,-5.901594758E-3,9.431558847E-4,6.064613603E-3
1.274191088E1,-1.422961042E-3,-3.959734440E-3,6.542449594E-3,7.778686370E-3
1.275187288E1,7.842450086E-3,1.130851507E-2,4.909906983E-3,1.461142440E-2
1.276183487E1,3.408241505E-3,-9.741461277E-4,-2.614947930E-3,4.404886322E-3
1.277179788E1,-4.732425716E-3,1.354390562E-2,-7.830006480E-3,1.634448635E-2
1.278175988E1,3.521759715E-4,1.623420954E-2,-8.363857269E-3,1.826547825E-2
1.279172188E1,-2.021920121E-2,6.506196856E-3,-9.284793735E-3,2.318089924E-2
1.280168488E1,-6.726851589E-3,1.533900082E-2,-2.650886379E-2,3.135690256E-2
1.281164687E1,3.466992318E-3,4.714609981E-3,-1.264467694E-2,1.393324937E-2
1.282160888E1,-1.069828503E-2,7.859827280E-3,-1.295801461E-2,1.855101965E-2
1.283157188E1,-1.753706055E-2,2.252815247E-2,-2.317836285E-3,2.864329784E-2
1.284153387E1,-1.342248910E-2,1.774103701E-2,4.268467426E-5,2.224655995E-2
1.285149588E1,-1.011709463E-2,3.672636151E-3,-1.167053081E-2,1.587592988E-2
1.286145787E1,9.905548766E-4,1.879061222E-2,-1.391059913E-2,2.340027937E-2
1.287142088E1,3.906264394E-3,1.490045965E-2,4.781852961E-3,1.612912635E-2
1.288138288E1,-6.456847270E-3,7.417193055E-3,1.622602344E-3,9.966868508E-3
1.289134487E1,1.126243627E-2,1.025777042E-2,-2.972139716E-3,1.552088719E-2
1.290130788E1,1.357867828E-2,1.804275334E-2,-1.788151637E-3,2.265212878E-2
1.291126988E1,5.720166620E-3,1.460459054E-2,-1.382113673E-2,2.090545841E-2
1.292123188E1,-1.139640603E-3,8.922266364E-3,-8.218919411E-3,1.218426256E-2
1.293119488E1,1.141554653E-3,-2.752284408E-3,7.918884158E-3,8.460906736E-3
1.294115687E1,1.795296203E-3,-2.520676196E-2,8.540443182E-3,2.667476535E-2
1.295111888E1,-8.503468679E-3,6.074087620E-3,1.257736087E-3,1.052546531E-2
1.296108188E1,-1.438250598E-2,2.328595161E-2,2.939395308E-3,2.752693346E-2
1.297104387E1,1.589876208E-3,1.819770455E-2,-8.215337992E-4,1.828548810E-2
1.298100588E1,-1.193028880E-2,1.026712596E-2,-8.939881101E-3,1.810157840E-2
1.299096888E1,-3.919530264E-3,7.720078826E-3,8.741514310E-3,1.230351198E-2
1.300093088E1,-6.408776762E-3,1.100972235E-2,1.613831520E-3,1.284098353E-2
1.301089288E1,-6.885767947E-3,7.410176396E-3,-1.414967716E-2,1.739361602E-2
1.302085587E1,-1.364696279E-2,1.204818785E-2,-7.677978873E-3,1.975727166E-2
1.303081788E1,-8.894802723E-4,8.898292780E-3,-1.373101652E-2,1.638632369E-2
1.304077988E1,5.917893872E-3,9.787654281E-3,3.313032389E-3,1.190780533E-2
1.305074287E1,6.559109590E-3,6.643021703E-3,-1.373854481E-2,1.661021581E-2
1.306070488E1,3.815728482E-3,1.591787517E-2,-9.614649788E-3,1.898367784E-2
1.307066687E1,1.221521722E-2,1.322581708E-2,-4.412966743E-3,1.853666758E-2
1.308062988E1,2.244964446E-2,2.191653371E-2,-1.291649938E-2,3.392870381E-2
1.309059188E1,-2.722194088E-3,4.408800602E-3,-1.299777567E-2,1.399249927E-2
1.310055387E1,1.239691945E-3,-8.285504580E-4,-7.490283251E-4,1.668644783E-3
1.311051688E1,7.770501925E-3,5.244952440E-4,3.788995743E-4,7.797394456E-3
1.312047888E1,-9.698571037E-3,8.454489112E-3,-1.212273985E-3,1.292324551E-2
1.313044088E1,-6.373652355E-3,1.697856009E-2,-2.591997609E-3,1.831975433E-2
1.314040388E1,-7.935018819E-3,-8.419990540E-5,-1.129799008E-2,1.380638234E-2
1.315036587E1,-9.820101759E-3,-6.065316796E-3,-1.048873544E-2,1.559602634E-2
1.316032788E1,-3.646976925E-3,3.970844150E-3,-9.388216361E-3,1.082620203E-2
1.317029088E1,3.113116999E-3,4.721626639E-3,-8.946239948E-4,5.725871782E-3
1.318025288E1,-1.036392479E-2,1.609972358E-2,-1.108975612E-2,2.212678755E-2
1.319021488E1,-1.664684937E-2,1.699610174E-2,-1.048230350E-2,2.599737977E-2
1.320017787E1,-6.370267365E-5,6.662902236E-3,-1.869939566E-3,6.920621231E-3
1.321013988E1,-2.123557976E-3,1.265045106E-2,-2.923096195E-3,1.315628755E-2
1.322010188E1,5.817714622E-3,1.040804386E-2,-6.861122847E-3,1.375675060E-2
1.323006487E1,9.836752620E-3,2.309650183E-4,-3.291397691E-3,1.037537208E-2
1.324002688E1,-3.991350518E-3,-7.107875347E-3,1.937891521E-2,2.102368011E-2
1.324998888E1,-9.704459365E-4,-6.813760400E-3,1.585823357E-2,1.728735573E-2
1.325995088E1,2.878488335E-3,1.369067073E-2,-6.993927732E-3,1.564081792E-2
1.326991388E1,-3.699323209E-4,2.056699634E-2,6.023216844E-3,2.143402271E-2
1.327987587E1,-7.193226423E-3,1.592255294E-2,-3.358640671E-3,1.779187078E-2
1.328983888E1,-5.056672096E-3,9.638550282E-3,-8.344634548E-3,1.371511976E-2
1.329980088E1,1.367092724E-3,-6.227869391E-3,-2.226860918E-2,2.316346810E-2
1.330976288E1,-1.399709224E-2,7.991389632E-3,-1.821290731E-2,2.432058577E-2
1.331972488E1,8.515629061E-3,1.787259936E-2,-1.104422092E-2,2.266981610E-2
1.332968787E1,-7.053715512E-3,6.356508136E-3,-1.747096874E-2,1.988453788E-2
1.333964988E1,-1.396012230E-2,3.666204214E-3,8.823448420E-3,1.691683511E-2
1.334961188E1,1.218164141E-2,3.420738101E-2,-8.750431314E-3,3.735113588E-2
1.335957546E1,-1.461241119E-2,-3.364487886E-3,-4.257869348E-3,1.558755243E-2
1.336953746E1,-7.419646145E-3,-3.963242769E-3,2.621306777E-3,8.810771327E-3
1.337949946E1,-1.027725809E-3,-1.159385920E-2,4.968379140E-3,1.265537762E-2
1.338946246E1,1.125262391E-2,1.789306462E-2,-6.384574771E-3,2.208044613E-2
1.339942446E1,-1.279334240E-3,6.063562632E-3,-4.673094749E-3,7.761527068E-3
1.340938646E1,-3.080372592E-3,-8.306554556E-3,3.564462662E-3,9.549499356E-3
1.341934946E1,-8.208622830E-4,1.025426209E-2,8.355086446E-3,1.325259127E-2
1.342931146E1,-8.732912508E-3,1.144592464E-2,-2.472787499E-3,1.460779346E-2
1.343927346E1,1.052765597E-2,6.052452922E-3,-1.542678215E-2,1.963286362E-2
1.344923646E1,-5.668628896E-3,2.056524217E-2,-4.839228764E-3,2.187420111E-2
1.345919846E1,-1.146385458E-2,1.352577925E-2,-7.015489340E-3,1.906787237E-2
1.346916046E1,-1.073421800E-2,2.714920700E-2,-1.991854012E-2,3.534191728E-2
1.347912346E1,2.991828388E-3,2.969566941E-2,-9.774205685E-3,3.140571470E-2
1.348908546E1,-1.534082808E-2,7.693181634E-3,-1.159035087E-2,2.070899039E-2
1.349904746E1,1.843403256E-3,-5.913873911E-3,-1.765859127E-3,6.441296349E-3
1.350901046E1,-4.773018183E-3,4.270806313E-3,-1.187920332E-2,1.349581271E-2
1.351897246E1,-5.652567325E-4,-6.057715416E-3,-5.746716633E-3,8.369001332E-3
1.352893446E1,1.292641223E-3,5.917966962E-3,-1.367846467E-2,1.495973429E-2
1.353889746E1,3.204699014E-3,1.340766549E-2,7.523539290E-3,1.570475193E-2
1.354885946E1,2.970933728E-4,6.806159019E-4,4.435039982E-3,4.496785754E-3
1.355882146E1,2.790423785E-3,-3.810630441E-3,1.416429520E-2,1.493099554E-2
1.356878446E1,-5.938226650E-3,7.410761118E-3,-1.476495042E-3,9.610512666E-3
1.357874646E1,1.774250795E-3,1.568223238E-3,5.626190901E-3,6.104204621E-3
1.358870846E1,1.012235256E-3,3.683745861E-4,7.601380348E-3,7.677323964E-3
1.359867146E1,-2.797234878E-3,5.161337256E-3,6.981575489E-3,9.121749917E-3
1.360863346E1,-9.702385431E-3,2.762224674E-3,4.478967190E-4,1.009786015E-2
1.361859546E1,-1.001290913E-2,1.563603938E-2,-3.122413158E-4,1.856991037E-2
1.362855846E1,1.021453757E-3,1.039927304E-2,-2.581034079E-3,1.076336306E-2
1.363852046E1,-9.978561304E-3,-2.925946712E-3,-1.151784539E-2,1.551752597E-2
1.364848246E1,-1.206960785E-2,-2.629492879E-3,-9.081968442E-3,1.533205196E-2
1.365844546E1,-5.919456175E-3,-5.772956014E-3,-4.583632350E-3,9.453923421E-3
1.366840746E1,-9.653424136E-3,3.808876276E-3,-2.069402710E-3,1.058199242E-2
1.367836946E1,-3.657451663E-3,1.638155937E-2,-1.492150962E-2,2.245849259E-2
1.368833246E1,-9.001783929E-3,7.997821569E-3,-5.913873911E-3,1.341533333E-2
1.369829446E1,-9.768618853E-3,1.144124687E-2,-6.753534079E-4,1.505935412E-2
1.370825646E1,-3.085274203E-4,8.894199729E-3,-9.467373043E-4,8.949764774E-3
1.371821946E1,1.467610016E-3,4.555565715E-3,1.534126662E-2,1.607051709E-2
1.372818146E1,2.873193864E-3,1.158684254E-2,-4.677772522E-4,1.194692339E-2
1.373814346E1,5.407596398E-3,9.941436052E-3,1.374322258E-2,1.780310132E-2
1.374810646E1,9.774991404E-4,1.756795943E-2,4.879428372E-3,1.825917644E-2
1.375806846E1,-1.268178849E-3,7.087410092E-3,-9.905841127E-3,1.224603396E-2
1.376803046E1,-9.135913574E-3,4.545040727E-3,-1.696803510E-2,1.979991230E-2
1.377799246E1,-1.064879383E-2,2.026352584E-2,-2.088391542E-2,3.098621005E-2
1.378795546E1,2.286430341E-3,1.367429852E-2,-1.408711195E-2,1.976514424E-2
1.379791746E1,-6.717180843E-3,6.487485766E-3,-1.481107034E-2,1.750930594E-2
1.380787946E1,5.413927836E-4,2.100904584E-2,-2.869301811E-3,2.121098786E-2
1.381784246E1,-4.879940003E-3,1.636869550E-2,5.664197803E-3,1.799530893E-2
1.382780446E1,6.488170987E-4,1.682360888E-2,3.345265165E-3,1.716524332E-2
1.383776646E1,-2.083860864E-3,5.743135214E-3,6.899714470E-4,6.148344394E-3
1.384772946E1,-1.809571632E-3,1.053200483E-2,-5.425046682E-3,1.198452364E-2
1.385769146E1,-3.738102126E-3,4.245663285E-3,1.000341654E-2,1.149205842E-2
1.386765346E1,-1.458680678E-2,1.008469284E-2,2.951674461E-3,1.797743985E-2
1.387761646E1,-6.975326277E-3,1.008703172E-2,8.238726854E-4,1.229154798E-2
1.388757846E1,-5.360051226E-3,7.396727800E-3,-1.389408074E-2,1.662790459E-2
1.389754046E1,-4.847022006E-3,-1.282294393E-3,-9.757906571E-3,1.097062632E-2
1.390750346E1,-5.295562833E-3,2.165223956E-3,9.936758280E-3,1.146605188E-2
1.391746546E1,8.784619253E-4,-5.325059295E-3,7.618337274E-3,9.336327686E-3
1.392742746E1,6.462694486E-3,4.401199222E-3,-7.598456740E-3,1.090291335E-2
1.393739046E1,-1.420377304E-2,1.907127857E-2,-7.197922468E-4,2.379031181E-2
1.394735246E1,-1.214539781E-2,7.845209241E-3,-5.064273477E-3,1.532008035E-2
1.395731446E1,-1.720918707E-2,7.838192582E-3,3.570894599E-3,1.924434126E-2
1.396727746E1,-7.171747042E-4,2.624639690E-2,-3.710058331E-3,2.651701760E-2
1.397723946E1,9.495604131E-4,2.774328411E-2,-1.159429774E-3,2.778373185E-2
1.398720146E1,-3.195206425E-3,2.430219769E-2,-7.366760820E-4,2.452241523E-2
1.399716446E1,-6.942161601E-3,5.886391997E-3,3.712981939E-4,9.109395193E-3
1.400712646E1,-1.594261620E-3,-5.940186381E-3,-1.502617478E-2,1.623617606E-2
1.401708846E1,-1.303012722E-2,8.731647134E-3,-9.663693309E-3,1.842316057E-2
1.402705146E1,-1.277408313E-2,2.070791423E-2,-5.632622838E-3,2.497441394E-2
1.403701346E1,-7.067305720E-3,1.472679734E-2,-1.725637592E-2,2.376147891E-2
1.404697546E1,1.893780674E-3,6.647114754E-3,4.549133778E-3,8.274367524E-3
1.405693846E1,8.753702100E-3,4.402368665E-3,1.816488706E-2,2.063907149E-2
1.406690046E1,-9.293532581E-3,-4.721626639E-3,1.012094557E-2,1.452917910E-2
1.407686246E1,-5.335858371E-4,1.717911959E-3,3.346946239E-3,3.799734790E-3
1.408682546E1,1.080981153E-3,1.100270569E-2,1.512382329E-2,1.873387530E-2
1.409678746E1,-1.666387939E-2,3.960319161E-3,6.679274440E-3,1.838427891E-2
1.410674946E1,-4.223037302E-3,6.050698757E-3,9.152646661E-3,1.175652757E-2
1.411671246E1,-2.499279498E-2,1.128278732E-2,-9.461379647E-3,2.900790919E-2
1.412667446E1,-1.415105673E-2,3.499558568E-3,-1.261770666E-2,1.927967422E-2
1.413663646E1,-1.448222841E-2,6.787447929E-3,-1.538285494E-2,2.219091290E-2
1.414659946E1,-6.068153610E-3,1.381814003E-2,-1.171204604E-2,1.910328518E-2
1.415656146E1,-6.578793693E-3,1.845556676E-2,-2.558690406E-2,3.222697830E-2
1.416652346E1,-1.771998703E-3,1.935428381E-2,-1.556762695E-2,2.490139133E-2
1.417648646E1,-3.733428922E-3,2.998042881E-2,-7.768025994E-3,3.119466030E-2
1.418644846E1,-1.766716566E-2,2.160546184E-2,-1.415260077E-2,3.129250441E-2
1.419641046E1,-8.623898481E-3,1.531970501E-2,-8.783687353E-3,1.965243369E-2
1.420637346E1,-2.652137135E-3,3.502482176E-4,9.641327709E-4,2.843599338E-3
1.421633546E1,-8.546025446E-3,-5.639639497E-3,1.744151339E-3,1.038663316E-2
1.422629746E1,-2.570047709E-3,-2.947581410E-3,-2.260460481E-3,4.516974982E-3
1.423626046E1,-1.091028314E-2,4.534515738E-3,1.032852173E-2,1.569313456E-2
1.424622246E1,-1.753388569E-2,7.379770875E-3,7.484436035E-4,1.903833852E-2
1.425618446E1,-3.494003713E-3,4.539778233E-3,-1.858829856E-3,6.022698463E-3
1.426614746E1,-5.943977935E-3,-2.491498590E-3,-1.583309054E-2,1.709459549E-2
1.427610946E1,-4.541253741E-3,-1.821173787E-2,-4.266786352E-3,1.924826869E-2
1.428607146E1,-2.662497670E-3,-4.587140679E-3,-1.612830184E-2,1.697801148E-2
1.429603346E1,-7.808906254E-3,9.038041234E-3,1.166694939E-2,1.669679353E-2
1.430599646E1,3.375990456E-4,1.233060837E-2,-5.402169451E-3,1.346630278E-2
1.431595846E1,-1.461565913E-2,1.577520311E-2,8.496662155E-3,2.312288461E-2
1.432592046E1,1.912948578E-3,6.652377248E-3,1.869822621E-2,1.993833390E-2
1.433588346E1,-7.464518957E-3,1.084483087E-2,1.014608860E-2,1.662144740E-2
1.434584546E1,-5.557061280E-3,6.947076917E-3,-6.523738503E-3,1.103186167E-2
1.435580758E1,-6.690932326E-3,-5.420368910E-4,4.460767731E-3,8.059828046E-3
1.436577058E1,6.090377597E-4,1.397133708E-2,-1.283536926E-3,1.404338470E-2
1.437573258E1,-8.474671142E-3,2.444253087E-2,5.847142562E-3,2.652256478E-2
1.438569458E1,-4.971910310E-3,3.596739292E-2,-9.853873998E-3,3.762276011E-2
1.439565758E1,-1.272394782E-2,1.381521642E-2,-1.781310394E-2,2.588562777E-2
1.440561958E1,-1.346273439E-2,1.097171545E-2,-2.635405876E-2,3.156200517E-2
1.441558158E1,-1.165482556E-3,7.681487203E-3,-5.140945092E-3,9.316271339E-3
1.442554458E1,-1.702028546E-3,1.157397866E-2,-7.406668067E-3,1.384603247E-2
1.443550658E1,-3.891276335E-4,2.579089880E-2,-3.461551666E-3,2.602506909E-2
1.444546858E1,-1.517256988E-2,2.040736735E-2,1.892107822E-2,3.169660423E-2
1.445543158E1,-7.930290797E-3,2.026294112E-2,6.113263965E-3,2.260195326E-2
1.446539358E1,-2.039131948E-2,1.103369594E-3,1.686804771E-2,2.648687162E-2
1.447535558E1,1.488413312E-3,-5.184726119E-3,-1.561038472E-2,1.651607914E-2
1.448531858E1,1.435920848E-3,2.744098306E-3,-3.574476019E-3,4.729569008E-3
1.449528058E1,-1.711674167E-2,-1.603891253E-3,1.673407339E-2,2.399134270E-2
1.450524258E1,1.599862156E-3,-6.100400090E-3,-1.252013125E-2,1.401884897E-2
1.451520558E1,-2.324962579E-3,1.725220978E-2,-2.354746833E-3,1.756670220E-2
1.452516758E1,-1.143391044E-3,1.919582427E-2,8.923435807E-3,2.119940374E-2
1.453512958E1,-7.500963556E-3,-8.198965788E-3,9.843787551E-3,1.484545882E-2
1.454509258E1,-5.728370994E-3,3.173283935E-3,-7.753992677E-3,1.014930380E-2
1.455505458E1,-3.992232168E-4,8.252175450E-3,-1.555008531E-2,1.760860392E-2
1.456501658E1,7.405073787E-3,5.998658538E-3,-1.049633682E-2,1.417716857E-2
1.457497958E1,-1.071808334E-3,2.395662725E-2,-1.641437687E-2,2.906029130E-2
1.458494158E1,1.235055286E-3,9.281285405E-3,-1.661705598E-3,9.509410383E-3
1.459490358E1,-6.468596519E-3,1.062789917E-2,-1.618275404E-2,2.041265563E-2
1.460486658E1,-2.249185405E-2,1.841872931E-2,-2.058804631E-3,2.914398333E-2
1.461482858E1,-1.612084208E-2,1.797784925E-2,8.453904390E-3,2.558423562E-2
1.462479058E1,-9.720996022E-3,-2.525997162E-3,-4.911149517E-3,1.118024217E-2
1.463475358E1,-6.528525911E-3,1.738611102E-2,-8.704092130E-3,2.050999090E-2
1.464471558E1,-7.300326400E-3,1.858420551E-2,-1.276037872E-2,2.369587992E-2
1.465467758E1,5.520306048E-3,2.816779196E-2,-9.209949374E-3,3.014500706E-2
1.466464058E1,-1.566142451E-2,7.061097622E-3,-4.113516212E-3,1.766522949E-2
1.467460258E1,1.672419250E-2,9.912199974E-3,-1.963093020E-2,2.762831417E-2
1.468456458E1,6.266831034E-3,1.964138210E-2,-6.157848984E-3,2.151688096E-2
1.469452758E1,4.111807728E-3,1.964605987E-2,-3.386122584E-3,2.035535451E-2
1.470448958E1,5.137911849E-3,1.396724403E-2,-1.414507248E-2,2.053205102E-2
1.471445158E1,-3.955888068E-3,-3.541073799E-3,-5.534462705E-3,7.669324057E-3
1.472441458E1,1.053391431E-2,-1.087055862E-2,-5.158998370E-3,1.599211242E-2
1.473437658E1,2.243489851E-3,-5.350202322E-4,-7.363910303E-3,7.716648774E-3
1.474433858E1,-1.543608287E-2,1.339304745E-2,2.114937901E-3,2.054554299E-2
1.475430158E1,-2.612145378E-2,9.954884648E-3,-5.577074289E-3,2.850497910E-2
1.476426358E1,-1.366046621E-2,1.055539370E-2,-4.111762047E-3,1.774630272E-2
1.477422558E1,-1.178001992E-2,9.963070750E-3,-8.536350131E-3,1.763238276E-2
1.478418858E1,-1.468360104E-2,1.161666334E-2,-7.080978155E-4,1.873649938E-2
1.479415058E1,-1.322207121E-2,1.805386305E-2,9.484914690E-4,2.239787432E-2
1.480411258E1,-5.495414268E-3,3.077623487E-2,-1.176686369E-2,3.340412088E-2
1.481407558E1,-4.551244257E-3,2.239600539E-2,-1.106936395E-2,2.539341844E-2
1.482403758E1,8.946742443E-4,3.397232294E-3,5.077648982E-3,6.174475561E-3
1.483399958E1,2.623412688E-3,7.745806575E-3,-1.622090712E-3,8.337325225E-3
1.484396258E1,2.864829605E-3,6.701493859E-3,-1.067774668E-3,7.365963029E-3
1.485392458E1,1.036865738E-2,-1.110737085E-2,6.659905538E-3,1.659027079E-2
1.486388658E1,1.685845006E-2,8.648031950E-4,-6.191616654E-3,1.798030422E-2
1.487384958E1,-2.590156649E-3,3.844427347E-2,-7.190832719E-3,3.919667268E-2
1.488381158E1,4.694994399E-4,3.066630721E-2,3.515419140E-3,3.087071427E-2
1.489377358E1,7.843628665E-4,-4.950837493E-3,5.482349396E-3,7.428470360E-3
1.490373658E1,-7.972920653E-3,-1.943029761E-3,-5.037887916E-3,9.629285698E-3
1.491369858E1,4.640770610E-5,1.931744635E-2,-9.297584519E-3,2.143853925E-2
1.492366058E1,-1.168592087E-2,2.980852067E-2,-1.487356246E-2,3.530342068E-2
1.493362358E1,-3.010219708E-2,1.335504055E-2,-3.201862201E-3,3.308702614E-2
1.494358558E1,-3.019607230E-3,1.007475257E-2,-1.430228949E-2,1.775314484E-2
1.495354758E1,8.887690133E-3,-1.072262406E-2,6.066486239E-3,1.519104861E-2
1.496351058E1,-8.783669081E-3,-1.175875068E-2,-7.116573080E-3,1.631155028E-2
1.497347258E1,-9.092420340E-5,-1.723174453E-3,1.169443130E-3,2.084513046E-3
1.498343458E1,-5.671922523E-3,3.016870916E-2,-5.681812540E-3,3.121865966E-2
1.499339758E1,-2.458434412E-3,2.254686356E-2,8.916272968E-4,2.269801655E-2
1.500335958E1,6.142532020E-3,1.073548794E-2,1.446593843E-2,1.903272906E-2
1.501332158E1,9.254461303E-3,-9.012898207E-3,1.550798535E-2,2.018353284E-2
1.502328458E1,-6.903049210E-4,-1.934083521E-2,1.027640842E-2,2.191230243E-2
1.503324658E1,-2.599178720E-4,-4.819859862E-3,-9.794086218E-3,1.091891621E-2
1.504320858E1,-7.867510887E-3,3.110367894E-2,-3.045229912E-3,3.222747270E-2
1.505317158E1,-1.325612667E-2,3.305021703E-2,-1.966308989E-2,4.067774384E-2
1.506313358E1,9.016607534E-3,2.990850806E-2,-2.791928530E-2,4.189635494E-2
1.507309558E1,-8.518479578E-4,-2.262930930E-2,-1.928411722E-2,2.974371297E-2
1.508305758E1,-8.875182574E-3,-3.767945766E-3,-1.629100062E-2,1.893047760E-2
1.509302058E1,5.781393363E-3,5.013110340E-2,-2.617981173E-2,5.685010624E-2
1.510298258E1,-1.202733431E-2,5.194257081E-2,-1.666814603E-2,5.586156572E-2
1.511294458E1,-1.107481374E-2,-4.473119974E-3,-1.240720689E-2,1.722205227E-2
1.512290758E1,-4.149403498E-3,-8.356255889E-3,-1.913866773E-3,9.524045773E-3
1.513286958E1,4.337674705E-4,6.926026940E-3,4.181270823E-3,8.101915150E-3
1.514283158E1,1.351673434E-2,8.134061694E-3,8.069742322E-3,1.771964469E-2
1.515279458E1,-4.429092268E-3,-3.078734457E-2,2.218492091E-2,3.820534203E-2
1.516275658E1,7.661259491E-3,-8.183178306E-3,2.741759419E-2,2.962066467E-2
1.517271958E1,-7.518477794E-3,2.535001874E-2,1.735278189E-2,3.162704535E-2
1.518268158E1,2.205222566E-3,2.071726978E-2,3.460148335E-2,4.038973785E-2
1.519264358E1,-1.972908120E-2,-1.819361150E-2,-8.919415846E-3,2.828073767E-2
1.520260558E1,2.096194834E-3,-2.507929265E-2,-4.428754225E-3,2.555345019E-2
1.521256858E1,-6.204992160E-4,1.786967576E-2,-8.216068894E-4,1.789931196E-2
1.522253058E1,-3.776753135E-3,3.598025680E-2,-3.796012402E-3,3.637653713E-2
1.523249258E1,-1.831114054E-2,2.864550948E-2,-9.473585710E-3,3.529322750E-2
1.524245558E1,-1.003801561E-2,1.937182546E-2,-1.721712649E-2,2.779314346E-2
1.525241758E1,-2.277854577E-2,-2.059564769E-2,-2.063942872E-2,3.700039012E-2
1.526237958E1,-2.336145379E-3,-6.864631176E-4,-1.916943870E-2,1.932346209E-2
1.527234258E1,4.299256671E-4,2.775263965E-2,1.965833902E-3,2.782549814E-2
1.528230458E1,-7.262465679E-3,3.734382749E-2,-1.570394017E-2,4.115724233E-2
1.529226658E1,-9.052672978E-3,1.057936728E-2,-6.014044024E-2,6.173124373E-2
1.530222958E1,1.695146190E-2,1.223237514E-3,-4.070955791E-2,4.411481016E-2
1.531219158E1,-2.355474538E-2,-1.071911573E-2,5.358096063E-2,5.950331767E-2
1.532215358E1,4.365386396E-2,6.117941737E-3,-8.877016224E-2,9.911221294E-2
1.533211658E1,-9.289713618E-3,-9.407585263E-3,8.921031140E-2,9.018470546E-2
1.534207858E1,6.212387974E-3,1.278786063E-2,-1.453215815E-2,2.032994748E-2
1.535204058E1,1.972700726E-2,2.156453133E-3,8.715223767E-2,8.938298292E-2
1.536200358E1,5.084976275E-3,4.656722546E-3,5.858968556E-2,5.899401073E-2
1.537196558E1,-4.590959642E-3,5.181802511E-3,2.595272049E-2,2.686022503E-2
1.538192758E1,-8.320648173E-2,-4.308813214E-3,-3.722461738E-2,9.125544703E-2
1.539189058E1,5.270981686E-2,-4.616961479E-3,-6.792242646E-2,8.609934462E-2