"Time (s)","Linear Acceleration x (m/s^2)","Linear Acceleration y (m/s^2)","Linear Acceleration z (m/s^2)","Absolute acceleration (m/s^2)"
1.278520830E-2,-2.687214490E-2,5.739371069E-3,9.465414226E-2,9.856195615E-2
2.274720825E-2,-3.123253239E-2,2.542550264E-2,4.675082803E-2,6.170548748E-2
3.270920832E-2,2.820750963E-2,4.479420349E-2,1.272722501E-1,1.378419744E-1
4.267120827E-2,-5.114419746E-2,6.482342044E-2,-1.523626524E-1,1.732979591E-1
5.263320834E-2,2.638655192E-2,2.807639267E-2,1.235148293E-1,1.293848793E-1
6.259520829E-2,-1.537191653E-2,3.624935662E-2,-4.116205931E-2,5.696162568E-2
7.255720824E-2,1.024581903E-2,7.368387077E-3,4.236775517E-2,4.420742714E-2
8.251920831E-2,2.316260277E-3,-2.824493866E-2,-8.801521361E-2,9.246523373E-2
9.248120827E-2,3.754507449E-3,-3.430716740E-2,-6.877495050E-3,3.519059533E-2
1.024422083E-1,1.161371803E-2,-5.191804904E-2,3.653515756E-2,6.453820575E-2
1.124042083E-1,8.366462250E-3,-4.758301472E-2,-3.979731917E-2,6.259367056E-2
1.223662084E-1,8.886944956E-3,-7.038713749E-2,-3.113057613E-3,7.101421015E-2
1.323282083E-1,3.895939261E-3,-6.001388457E-2,-2.661126316E-2,6.576476268E-2
1.422902083E-1,1.132224004E-2,-7.079540106E-2,5.153560460E-2,8.829552917E-2
1.522522083E-1,1.541452469E-2,-4.197599173E-2,2.593824863E-3,4.479195665E-2
1.622142083E-1,1.791996181E-2,-1.389265548E-2,5.888263106E-2,6.309750509E-2
1.721762083E-1,7.477635221E-3,1.142788963E-2,3.103994429E-2,3.391149999E-2
1.821382083E-1,2.625531162E-4,3.344578117E-2,3.567970991E-2,4.890532601E-2
1.921002083E-1,4.504165606E-3,6.466216519E-2,3.926990032E-2,7.578659635E-2
2.020622083E-1,-6.549150480E-3,7.265039368E-2,4.929319739E-2,8.803857327E-2
2.120242083E-1,-8.366840263E-3,7.110881181E-2,5.841660798E-2,9.240653235E-2
2.219862083E-1,-1.298082332E-2,5.131366622E-2,3.954822779E-2,6.607311432E-2
2.319482083E-1,-2.320499509E-5,2.528854989E-2,3.564638078E-2,4.370555750E-2
2.419092084E-1,-3.555038595E-5,-5.839029551E-3,2.905130625E-2,2.963231217E-2
2.518712083E-1,-7.874405348E-3,-2.458392385E-2,1.632016361E-2,3.054051918E-2
2.618332083E-1,5.947587906E-3,-4.693552695E-2,-1.945836425E-2,5.115608890E-2
2.717952083E-1,1.013590851E-3,-8.154152362E-2,-3.053474486E-2,8.707708128E-2
2.817572083E-1,8.510751432E-3,-9.239041099E-2,-2.125170529E-2,9.518432597E-2
2.917192084E-1,3.126453676E-3,-8.205549387E-2,-1.032033563E-2,8.276103017E-2
3.016812083E-1,1.651610243E-2,-7.220041389E-2,-3.141708970E-2,8.045318471E-2
3.116432083E-1,4.155706385E-3,-3.797550950E-2,-2.227555275E-2,4.422227344E-2
3.216052083E-1,2.461051955E-3,-2.075460060E-2,-1.609738469E-3,2.096190546E-2
3.315672083E-1,-6.423656898E-3,4.049671926E-3,2.563945591E-2,2.674032367E-2
3.415292084E-1,8.993893614E-3,2.336987743E-2,5.842537880E-2,6.356544802E-2
3.514912083E-1,7.768186450E-3,4.112710392E-2,6.231436193E-2,7.506572520E-2
3.614532083E-1,7.568879765E-3,4.015460232E-2,3.940964878E-2,5.676971416E-2
3.714152083E-1,4.981333806E-3,4.157394083E-2,4.075041533E-2,5.842775532E-2
3.813772083E-1,-8.702251171E-3,2.315071648E-2,3.251344264E-2,4.085105630E-2
3.913382083E-1,6.581299317E-3,8.027039375E-3,2.741934836E-2,2.931838205E-2
4.013002083E-1,3.971434581E-3,1.597185228E-3,3.055404067E-2,3.085243418E-2
4.112622082E-1,-1.385676706E-2,-7.639314160E-3,2.845255136E-2,3.255636333E-2
4.212242083E-1,5.533284126E-3,-2.216467492E-2,8.988924623E-3,2.454976199E-2
4.311862083E-1,-1.027061945E-2,-2.825093206E-2,4.795886278E-3,3.044012666E-2
4.411482083E-1,4.025051950E-3,-3.828897508E-2,-1.432567835E-4,3.850022309E-2
4.511102083E-1,4.437405135E-3,-3.607843520E-2,-1.643652320E-3,3.638743800E-2
4.610722082E-1,1.438448284E-2,-4.658522392E-2,3.745726347E-3,4.889915030E-2
4.710342083E-1,2.816182141E-2,-4.439513102E-2,-1.376609981E-2,5.434630942E-2
4.809962083E-1,1.727695424E-2,-2.236804839E-2,-6.727221608E-3,2.905302475E-2
4.909582083E-1,6.150176227E-3,-1.200447991E-2,1.153831065E-2,1.775006530E-2
5.009202083E-1,6.954021627E-3,-3.461003490E-4,1.229201674E-2,1.412699111E-2
5.108822084E-1,8.206637403E-3,5.316416379E-3,1.079571426E-2,1.456573469E-2
5.208442083E-1,-8.847653837E-3,1.379931930E-2,3.519205213E-2,3.882245129E-2
5.308062083E-1,3.584821707E-3,2.407779252E-2,5.434460700E-2,5.954768970E-2
5.407672083E-1,-6.844302965E-3,2.841763252E-2,6.720906615E-2,7.329027831E-2
5.507292083E-1,-7.301457585E-3,1.383394578E-2,5.073161244E-2,5.308847182E-2
5.606912083E-1,-8.808259934E-3,1.992069628E-2,2.736847758E-2,3.497789514E-2
5.706532083E-1,3.677751894E-3,9.420083687E-3,1.313986301E-2,1.658070673E-2
5.806152083E-1,1.155954563E-3,3.166596182E-3,1.597400844E-2,1.632582335E-2
5.905772083E-1,5.497445376E-3,-2.300329356E-2,2.473372221E-4,2.365236977E-2
6.005392083E-1,1.566434698E-2,-3.189939363E-2,6.893867254E-4,3.554459641E-2
6.105012083E-1,1.388577815E-2,-2.413913347E-2,1.385380805E-2,3.110370712E-2
6.204632083E-1,1.268009599E-2,-3.502072871E-2,2.471618056E-3,3.732753902E-2
6.304252082E-1,8.569567341E-3,-2.542301757E-2,1.123834848E-3,2.685200759E-2
6.403872083E-1,1.624627741E-3,-9.907120205E-3,1.270599961E-3,1.011952916E-2
6.503492083E-1,8.885757811E-3,-2.320306733E-2,1.788078547E-2,3.061146051E-2
6.603112083E-1,9.311590428E-3,-9.090191089E-3,8.743926287E-3,1.567780397E-2
6.702732083E-1,1.880621584E-3,-1.361421838E-2,8.740417957E-3,1.628737504E-2
6.802342084E-1,6.025915471E-4,4.142935015E-4,2.749945521E-3,2.845515076E-3
6.901962083E-1,1.556705822E-3,-7.160701286E-3,8.586051464E-3,1.128801381E-2
7.001582083E-1,1.939242776E-4,-1.091729980E-2,1.441981852E-2,1.808745996E-2
7.101202083E-1,7.876039599E-5,-7.338968273E-3,2.339704871E-2,2.452118568E-2
7.200822083E-1,-2.934665002E-3,4.290632028E-3,3.866237462E-2,3.901026779E-2
7.300442084E-1,6.762472210E-3,2.249180837E-2,3.191936553E-2,3.962900919E-2
7.400062083E-1,4.641074392E-3,1.078321584E-2,7.067529559E-3,1.370282049E-2
7.499682083E-1,-7.055056260E-3,-8.508886490E-3,1.619327903E-2,1.960605146E-2
7.599302083E-1,9.176971992E-3,-1.152042182E-2,8.106579781E-3,1.681230411E-2
7.698922083E-1,3.633482076E-3,-4.734563604E-3,9.452024102E-3,1.117850814E-2
7.798542083E-1,5.763437729E-3,-3.387171429E-2,6.755872965E-3,3.501645417E-2
7.898162083E-1,1.868452865E-2,-3.795902766E-2,4.660230875E-4,4.231095094E-2
7.997782083E-1,1.402221699E-2,-3.307324044E-2,-1.345327377E-2,3.835951483E-2
8.097402083E-1,3.767491237E-3,-2.672117254E-2,1.967003345E-3,2.705705369E-2
8.197022083E-1,1.788248938E-2,-1.549550520E-2,-6.710264683E-3,2.459515725E-2
8.296632083E-1,7.758797215E-3,-5.625861995E-3,3.173868656E-3,1.009567728E-2
8.396252083E-1,5.178366130E-3,1.366516225E-2,2.054243803E-2,2.520999594E-2
8.495872084E-1,6.761486063E-3,1.208053026E-3,3.431438506E-2,3.499505833E-2
8.595492083E-1,9.353526498E-3,1.335482128E-2,2.832625151E-2,3.268357743E-2
8.695112083E-1,3.878628305E-4,2.149679499E-2,3.401266873E-2,4.023834324E-2
8.794732083E-1,-3.091667311E-3,1.376997359E-2,3.490963161E-2,3.765438830E-2
8.894352083E-1,8.038520246E-3,2.166676624E-2,9.758418202E-3,2.508571890E-2
8.993972084E-1,1.027759842E-2,9.797740728E-3,-7.227158546E-4,1.421784340E-2
9.093592083E-1,-8.451648302E-3,5.759324692E-3,-1.135119975E-2,1.527906789E-2
9.193212083E-1,9.633952451E-3,-1.502502361E-2,-4.760802984E-3,1.847240156E-2
9.292832083E-1,-3.656235968E-3,-3.741479807E-2,1.678150892E-3,3.763045796E-2
9.392452083E-1,7.441323669E-3,-3.435456639E-2,-3.049790740E-2,4.653742457E-2
9.492072084E-1,1.019822247E-2,-4.155937761E-2,-3.243041217E-2,5.369280438E-2
9.591692083E-1,1.118856492E-2,-5.119995615E-2,-3.705555975E-2,6.418515407E-2
9.691312083E-1,1.588608779E-2,-4.680284997E-2,-3.898104787E-2,6.294757060E-2
9.790930833E-1,1.740030537E-2,-5.015242746E-2,-4.210112214E-2,6.775353196E-2
9.890550832E-1,2.805574012E-2,-5.784489647E-2,-1.303753674E-2,6.559827715E-2
9.990170833E-1,1.377954384E-2,-3.681719435E-2,8.542197347E-3,4.022873058E-2
1.008979083E0,9.489073408E-3,-1.965446524E-2,1.904438138E-2,2.896599697E-2
1.018941083E0,2.101742837E-3,-1.279644873E-3,1.831991136E-2,1.848442496E-2
1.028903083E0,2.198753512E-3,4.566072430E-3,7.868598104E-3,9.359400118E-3
1.038865083E0,-7.151087070E-3,2.440375652E-2,1.747323453E-2,3.085442114E-2
1.048827083E0,-7.155784257E-3,2.540043270E-2,4.563400984E-2,5.271479948E-2
1.058789083E0,-2.160433807E-2,2.489408210E-2,1.191422814E-1,1.236177413E-1
1.068751083E0,-2.651070932E-2,3.723432010E-2,1.490776867E-1,1.559274478E-1
1.078713083E0,-2.318436995E-2,5.631398577E-2,1.465218687E-1,1.586739992E-1
1.088675083E0,-3.206860657E-2,5.135154521E-2,1.252444357E-1,1.391098321E-1
1.098637083E0,-3.066812761E-2,6.170669004E-2,1.427258563E-1,1.584894940E-1
1.108599083E0,-1.195552776E-2,6.835623505E-2,1.277195621E-1,1.453540369E-1
1.118561083E0,4.226860261E-3,6.349758256E-2,3.322797239E-2,7.179072007E-2
1.128522083E0,3.457872032E-3,2.542479001E-2,2.584469318E-4,2.566015629E-2
1.138484083E0,1.956935856E-2,-1.887554303E-5,4.183682799E-2,4.618744773E-2
1.148446083E0,1.968959879E-2,-8.395541869E-3,4.808808625E-2,5.263676911E-2
1.158408083E0,3.598082324E-2,-1.730870850E-2,-1.226862788E-2,4.176996842E-2
1.168370083E0,2.509230728E-2,-4.528142273E-2,-3.564638078E-2,6.285455904E-2
1.178332083E0,2.455313461E-2,-4.895753067E-2,-6.799844027E-2,8.731256557E-2
1.188294083E0,2.610980960E-2,-5.810699791E-2,-2.640193284E-2,6.895801201E-2
1.198256083E0,1.248873444E-2,-6.470322361E-2,-3.494646907E-2,7.459042388E-2
1.208218083E0,1.142448866E-2,-6.068746554E-2,-1.729547918E-2,6.412972021E-2
1.218180083E0,-6.920213986E-4,-6.343607716E-2,-5.682031810E-2,8.516550551E-2
1.228142083E0,1.970204468E-3,-5.961415429E-2,-4.814071119E-2,7.665022616E-2
1.238104083E0,-6.169383531E-3,-3.375330817E-2,-4.424763501E-2,5.599285945E-2
1.248066083E0,-1.264808363E-2,-9.023624193E-3,-4.050190866E-2,4.337976969E-2
1.258028083E0,-1.157443890E-2,3.918986656E-3,4.856463432E-2,5.007843647E-2
1.267990083E0,-2.772898812E-2,1.717502654E-2,1.000511223E-1,1.052335754E-1
1.277951083E0,-3.711637765E-2,3.693733636E-2,5.947670817E-2,7.924311404E-2
1.287913083E0,-3.021836938E-2,4.958184885E-2,2.369057894E-2,6.271166649E-2
1.297875083E0,-1.174275306E-2,3.197904367E-2,-5.654257536E-3,3.453291346E-2
1.307837083E0,2.339183190E-4,1.900977317E-2,7.662191391E-3,2.049720397E-2
1.317799083E0,1.535678686E-3,-2.281053644E-3,1.649031758E-2,1.671801689E-2
1.327761083E0,8.846184039E-3,-2.202256931E-2,3.070606828E-2,3.880864801E-2
1.337723083E0,2.716985041E-2,-5.275191681E-2,-2.812452257E-2,6.566547242E-2
1.347685083E0,4.352233359E-2,-5.916399177E-2,-5.117307723E-2,8.951678768E-2
1.357647083E0,4.686312655E-2,-7.398319339E-2,-4.757645488E-2,9.966536306E-2
1.367609083E0,4.290239168E-2,-6.440940103E-2,-1.553429782E-2,7.893351989E-2
1.377571083E0,2.880324269E-2,-3.300451739E-2,-3.483069420E-2,5.596518754E-2
1.387533083E0,1.141763645E-3,-8.162548598E-3,4.945341110E-2,5.013552327E-2
1.397495083E0,2.244889985E-3,-7.291441374E-3,8.597745895E-3,1.149460233E-2
1.407457083E0,-8.880277189E-3,1.396194499E-2,1.055247009E-2,1.962523518E-2
1.417418083E0,-2.231608583E-2,1.502999375E-2,2.148325503E-2,3.443019961E-2
1.427380083E0,-2.815080306E-2,1.923037766E-2,6.325050116E-2,7.185333001E-2
1.437342083E0,-3.322959408E-2,2.353984868E-2,6.340194404E-2,7.535341337E-2
1.447304083E0,-1.994113869E-2,1.134407345E-2,7.148279607E-2,7.507414435E-2
1.457266083E0,-1.275066343E-2,1.221664248E-2,4.109247744E-2,4.472602680E-2
1.467228083E0,-6.208459376E-3,1.767753990E-2,6.811421514E-3,1.993579313E-2
1.477190083E0,1.353847410E-2,9.069396928E-3,3.420270324E-2,3.788626599E-2
1.487152083E0,7.755086746E-3,-7.401405573E-3,2.416946590E-2,2.644022044E-2
1.497114083E0,1.847801116E-2,-1.445234366E-2,7.100858688E-3,2.450978025E-2
1.507076083E0,1.518276253E-2,-3.310105126E-2,-5.725827456E-2,6.785798316E-2
1.517038083E0,2.475628424E-2,-6.235326419E-2,-4.136232644E-1,4.190286482E-1
1.527000083E0,1.074167320E-2,-6.124773843E-2,-2.164504749E-1,2.252054108E-1
1.536962083E0,-3.488801747E-3,-8.683447804E-2,5.412709057E-1,5.482030570E-1
1.546924083E0,7.724286080E-2,-1.253800180E-1,7.168394029E-1,7.318096324E-1
1.556886083E0,-2.311238752E-2,-3.461643029E-3,-1.935937089E-1,1.949992040E-1
1.566847083E0,1.263175368E-2,4.791014817E-2,-5.552176845E-1,5.574240941E-1
1.576809083E0,3.641816071E-3,1.166251099E-1,-1.434017944E-1,1.848749678E-1
1.586771083E0,-7.398246706E-3,1.225974560E-1,1.513569313E-1,1.949199603E-1
1.596733083E0,4.409537214E-3,3.469111020E-2,1.856537747E-1,1.889186100E-1
1.606695083E0,-5.214603107E-2,2.445464557E-2,-6.147119343E-2,8.423743745E-2
1.616657083E0,-2.727074686E-2,1.616316587E-3,-5.591341496E-2,6.223034698E-2
1.626619083E0,-3.051503335E-2,9.073124528E-3,1.237142193E-1,1.277446551E-1
1.636581083E0,-2.444535855E-3,-8.051944859E-3,1.615959907E-1,1.618149368E-1
1.646543083E0,-1.571099794E-2,-4.589614782E-2,-6.816391647E-2,8.366367999E-2
1.656505083E0,-2.666919627E-3,-7.346209684E-2,-1.733769608E-1,1.883171863E-1
1.666467083E0,3.775728730E-2,-7.717485951E-2,1.225810289E-2,8.678613237E-2
1.676429083E0,3.127489273E-2,-5.977893613E-2,7.035428345E-2,9.747494714E-2
1.686391083E0,6.815199820E-2,-4.677629996E-2,2.127918720E-2,8.535526290E-2
1.696353083E0,5.765937528E-2,-7.069486549E-2,-6.880769491E-2,1.142666462E-1
1.706314083E0,6.531772486E-2,-6.844535027E-2,-1.126354998E-1,1.470983582E-1
1.716276083E0,5.305074151E-2,-2.214225451E-2,3.109549284E-2,6.535740421E-2
1.726238083E0,2.093198593E-2,7.340484895E-3,1.010270226E-1,1.034335054E-1
1.736200083E0,-9.082239104E-3,3.257922381E-2,1.229014564E-1,1.274702352E-1
1.746162083E0,-4.169694706E-2,3.625673873E-2,4.477037609E-2,7.111661601E-2
1.756124083E0,-5.684638846E-2,5.424189700E-2,9.102769911E-2,1.202486477E-1
1.766086083E0,-8.939471796E-2,8.835285377E-2,9.746022105E-2,1.590475937E-1
1.776048083E0,-9.507992006E-2,1.091096653E-1,1.330791199E-1,1.966091616E-1
1.786010083E0,-7.862490504E-2,8.792346714E-2,8.756263912E-2,1.469000597E-1
1.795972083E0,-5.247642616E-2,3.745165380E-2,-2.815551281E-2,7.035008583E-2
1.805934083E0,-1.453738410E-2,1.277013626E-3,-5.824879289E-2,6.004904806E-2
1.815896083E0,1.484172939E-3,-3.021225264E-2,1.120384991E-2,3.225692533E-2
1.825858083E0,5.061616648E-2,-5.533119673E-2,6.823466778E-2,1.013879062E-1
1.835820083E0,7.294766977E-2,-6.957612868E-2,-1.669380069E-3,1.008215604E-1
1.845781083E0,5.839307293E-2,-8.096643168E-2,-7.410936534E-2,1.243282432E-1
1.855743083E0,5.133980967E-2,-8.352634270E-2,-6.661031127E-2,1.185299943E-1
1.865705083E0,6.037538867E-2,-6.771538021E-2,-2.468285143E-2,9.402022883E-2
1.875667083E0,5.410977733E-2,-5.577397713E-2,-1.104188204E-2,7.848902909E-2
1.885629083E0,2.074097613E-2,-4.861484729E-2,-2.659079790E-2,5.916639249E-2
1.895591083E0,1.453593600E-2,-3.977981407E-2,-1.594477236E-2,4.525442308E-2
1.905553083E0,-1.451251516E-2,-1.701632945E-2,2.224339306E-2,3.154262353E-2
1.915515083E0,-3.241227667E-2,2.222586969E-2,6.386972129E-2,7.499257470E-2
1.925477083E0,-3.746131084E-2,3.456702132E-2,8.273342371E-2,9.717534755E-2
1.935439083E0,-7.471988318E-2,5.833061736E-2,5.220218718E-2,1.082154805E-1
1.945401083E0,-6.925536322E-2,7.527913738E-2,6.792359591E-2,1.227879014E-1
1.955363083E0,-6.324718012E-2,8.349317802E-2,6.552448332E-2,1.235506960E-1
1.965325083E0,-4.343039526E-2,7.910391077E-2,1.029390621E-1,1.368944062E-1
1.975287083E0,-2.346250783E-2,6.608714992E-2,9.035176098E-2,1.143741289E-1
1.985247583E0,1.429178962E-2,1.875320831E-2,4.603103578E-2,5.171841382E-2
1.995209583E0,3.779898069E-2,-2.499087179E-2,3.507159948E-3,4.544894702E-2
2.005171583E0,5.150625888E-2,-4.502595423E-2,-8.627566695E-3,6.895408737E-2
2.015133583E0,6.214989529E-2,-6.726483397E-2,-1.716625571E-2,9.317643322E-2
2.025095583E0,6.550915265E-2,-7.506310103E-2,-1.611784995E-2,1.009242454E-1
2.035057583E0,4.909827041E-2,-8.083501551E-2,-3.422784626E-2,1.005807405E-1
2.045019583E0,3.284838759E-2,-6.729847373E-2,-3.661584914E-2,8.335959178E-2
2.054981583E0,1.046040271E-2,-4.640648184E-2,-2.630077600E-3,4.764345590E-2
2.064943583E0,-5.040347858E-3,-2.845021248E-2,1.339129329E-2,3.184566584E-2
2.074905583E0,-1.790999870E-2,-1.103709463E-2,1.684173524E-2,2.694864667E-2
2.084867583E0,-5.615095809E-2,6.435208004E-3,1.849415839E-2,5.946743555E-2
2.094829583E0,-5.515303024E-2,2.796218924E-2,1.819595039E-2,6.445799704E-2
2.104791583E0,-4.083206621E-2,1.840851495E-2,3.300987124E-2,5.563975785E-2
2.114753583E0,-4.626805815E-2,3.149997398E-2,5.006795347E-2,7.509847888E-2
2.124715583E0,-2.548648270E-2,2.564903073E-2,5.769330740E-2,6.808782047E-2
2.134676583E0,-1.588907763E-3,2.436900213E-2,4.586088181E-2,5.195761131E-2
2.144638583E0,6.394315182E-3,1.459571008E-2,1.920868814E-2,2.495787890E-2
2.154600583E0,7.356525909E-3,-2.377021071E-3,3.027863681E-2,3.125003280E-2
2.164562583E0,2.890221595E-2,1.170174032E-3,8.416482210E-3,3.012548036E-2
2.174524583E0,3.922140041E-2,-2.208683386E-2,7.814803720E-3,4.568607706E-2
2.184486583E0,3.860302538E-2,-4.040508242E-2,-1.269547462E-2,5.730566577E-2
2.194448583E0,4.945727118E-2,-5.159561165E-2,-1.419353127E-2,7.286690019E-2
2.204410583E0,2.907471795E-2,-5.018111536E-2,-9.400568604E-3,5.875248295E-2
2.214372583E0,1.922921050E-2,-4.795553718E-2,-1.643126070E-2,5.421699374E-2
2.224334583E0,4.408802315E-3,-6.123847425E-2,-2.630253017E-2,6.679379731E-2
2.234296583E0,-1.295830468E-2,-3.699330518E-2,-9.977104068E-3,4.044706286E-2
2.244258583E0,-3.147935113E-2,-7.695922516E-3,2.116692066E-4,3.240712228E-2
2.254220583E0,-3.596724674E-2,7.282396462E-3,2.896067441E-2,4.674822776E-2
2.264182583E0,-5.018672504E-2,1.183505684E-2,6.219917178E-2,8.079302514E-2
2.274143583E0,-3.887076847E-2,1.448731732E-2,3.540606022E-2,5.453813441E-2
2.284105583E0,-1.996069489E-2,3.153244430E-2,5.590932190E-2,6.722035897E-2
2.294067583E0,-1.346688568E-2,2.585843414E-2,5.515620053E-2,6.238767573E-2
2.304029583E0,7.767547482E-3,2.186279414E-2,4.197774589E-2,4.796298272E-2
2.313991583E0,1.425647221E-2,8.498215321E-3,2.745033860E-2,3.207783897E-2
2.323953583E0,3.509884157E-2,2.713016700E-3,5.109472454E-2,6.204804602E-2
2.333915583E0,3.010245290E-2,-8.122495171E-3,1.067175329E-2,3.295480111E-2
2.343877583E0,3.739008444E-2,-1.104639536E-2,-6.544788480E-3,3.953322048E-2
2.353839583E0,5.674451900E-2,-1.639065910E-2,-1.148627043E-2,6.017082807E-2
2.363801583E0,3.612099654E-2,-2.021444578E-2,2.283337712E-3,4.145556464E-2
2.373763583E0,2.595505481E-2,-3.648330007E-2,1.906192303E-4,4.477423801E-2
2.383725583E0,7.710515431E-3,-4.513803804E-2,-2.450451136E-2,5.193616855E-2
2.393687583E0,-3.814908501E-4,-4.336843304E-2,-2.255329549E-2,4.888371567E-2
2.403649583E0,-8.280445939E-3,-5.062797055E-2,1.703293920E-3,5.132892359E-2
2.413610583E0,-1.224536921E-2,-3.999577733E-2,8.139324188E-4,4.183627322E-2
2.423572583E0,-2.534327617E-2,-2.067705190E-2,-1.279897034E-2,3.512315140E-2
2.433534583E0,-2.168809487E-2,3.791480809E-3,7.570390105E-3,2.328217327E-2
2.443496583E0,-1.458509258E-2,9.213530794E-3,2.928344071E-2,3.398726195E-2
2.453458583E0,-1.343521593E-2,1.344897972E-2,4.186489463E-2,4.597879386E-2
2.463420583E0,4.338051577E-3,2.588388780E-2,5.114968836E-2,5.748986831E-2
2.473382583E0,-2.128157520E-3,3.337568767E-2,5.249688685E-2,6.224458780E-2
2.483344583E0,2.011597958E-2,3.403435824E-2,6.342240930E-2,7.473548138E-2
2.493306583E0,2.817550526E-2,2.910022186E-2,6.012457967E-2,7.249584188E-2
2.503268583E0,2.673799242E-2,2.018731104E-2,3.541892409E-2,4.875395317E-2
2.513230583E0,2.662651845E-2,3.439460155E-3,2.209136546E-2,3.476822973E-2
2.523192583E0,1.296605910E-2,-1.599582586E-2,7.715985775E-3,2.198912390E-2
2.533154583E0,1.013250524E-2,-3.595714202E-2,3.222400546E-3,3.749623435E-2
2.543116583E0,1.842612055E-2,-3.902740533E-2,6.663486958E-3,4.366992493E-2
2.553077583E0,1.543494084E-2,-4.721261188E-2,-9.649659991E-3,5.060023772E-2
2.563039583E0,-7.152675069E-4,-4.314812092E-2,-2.686035454E-2,5.083060685E-2
2.573001583E0,-1.385892208E-2,-3.531407621E-2,-3.419159353E-2,5.107072319E-2
2.582963583E0,-1.087268280E-2,-1.631362204E-2,-6.195124984E-3,2.056037618E-2
2.592925583E0,-1.345640066E-2,-2.096151894E-2,3.946461260E-2,4.666814377E-2
2.602887583E0,-1.469900251E-2,-2.323975861E-2,2.420221031E-2,3.663187190E-2
2.612849583E0,-5.529543392E-3,-8.944229968E-3,1.418008268E-2,1.765360713E-2
2.622811583E0,-3.821827516E-3,1.852372337E-2,3.738358855E-2,4.189591133E-2
2.632773583E0,6.511566131E-3,4.738090206E-3,3.439039886E-2,3.532066712E-2
2.642735583E0,7.342934558E-3,2.779488578E-2,4.292265594E-2,5.166070805E-2
2.652697583E0,4.133742210E-3,2.546202946E-2,4.501595914E-2,5.188293888E-2
2.662659583E0,1.791987730E-2,1.988062458E-2,6.028128505E-2,6.595600475E-2
2.672621583E0,1.633409186E-2,1.443588009E-2,5.982461751E-2,6.367245912E-2
2.682583583E0,1.734781633E-2,2.252234180E-2,4.754078686E-2,5.539249973E-2
2.692544583E0,1.486172641E-3,2.605976108E-3,2.747372746E-2,2.763703170E-2
2.702506583E0,1.752465349E-3,-7.610443532E-3,1.803515196E-2,1.965341425E-2
2.712468583E0,2.893265688E-3,-1.248629048E-2,6.607353687E-5,1.281728529E-2
2.722430583E0,6.298748038E-3,-2.659326470E-2,-1.400758982E-2,3.070974644E-2
2.732392583E0,4.896018133E-3,-4.095589014E-2,-1.805386305E-2,4.502552500E-2
2.742354583E0,-5.817381148E-3,-4.872042608E-2,-1.027063429E-2,5.012990893E-2
2.752316583E0,4.797261858E-3,-3.520970341E-2,-2.763160229E-2,4.501380211E-2
2.762278583E0,-1.268872520E-2,-2.411653033E-2,9.346189499E-3,2.880906177E-2
2.772240583E0,-6.604837215E-3,-2.884515535E-2,-1.574070454E-3,2.963350401E-2
2.782202583E0,-5.830507120E-3,-1.718975421E-2,3.270990908E-2,3.740883071E-2
2.792164583E0,5.404920612E-3,-1.249199152E-2,1.370704293E-2,1.931698851E-2
2.802126583E0,7.421527646E-3,1.047804600E-2,5.891537547E-2,6.029834150E-2
2.812088583E0,-1.730329298E-2,3.206923697E-2,-5.901010036E-3,3.691424965E-2
2.822050583E0,3.534221022E-3,1.732981330E-2,4.424646556E-2,4.765042352E-2
2.832012583E0,4.369311340E-3,2.111628743E-2,3.241988719E-2,3.893632702E-2
2.841973583E0,1.940959253E-3,1.277899845E-2,4.184910715E-2,4.379974764E-2
2.851935583E0,1.365395204E-2,1.383124145E-2,3.046808660E-2,3.613914702E-2
2.861897583E0,1.556818312E-3,9.962559119E-3,2.627153993E-2,2.814018617E-2
2.871859583E0,6.201320520E-3,-9.756883308E-3,1.324277401E-2,1.757908449E-2
2.881821583E0,6.395011251E-3,-1.015401889E-2,1.294164240E-2,1.764897664E-2
2.891783583E0,4.151919970E-3,-1.956591647E-2,-2.315497398E-4,2.000292834E-2
2.901745583E0,6.102801788E-3,-4.056025291E-2,1.715573072E-3,4.105266735E-2
2.911707583E0,8.011028625E-3,-4.799617533E-2,-2.622476220E-3,4.873075833E-2
2.921669583E0,3.549077176E-3,-4.384253260E-2,5.910950303E-3,4.438133557E-2
2.931631583E0,5.092753528E-3,-3.167906323E-2,-1.234756529E-2,3.437966775E-2
2.941593583E0,6.040983471E-3,-2.963502282E-2,4.872484803E-3,3.063444413E-2
2.951555583E0,7.146918074E-3,-3.007391118E-2,5.475917459E-3,3.139274189E-2
2.961517583E0,1.224627941E-3,-9.398448989E-3,2.939980030E-3,9.923408667E-3
2.971479583E0,5.041933573E-3,-3.388388380E-3,2.449924886E-2,2.524114627E-2
2.981440958E0,5.051528945E-3,1.473790705E-2,1.746329427E-2,2.340278820E-2
2.991402958E0,5.424704643E-3,2.780727457E-2,5.039773643E-2,5.781525557E-2
3.001364958E0,8.253897638E-3,2.531990558E-2,3.737774134E-2,4.589466191E-2
3.011326958E0,2.507311197E-3,2.432050679E-2,4.845295250E-2,5.427211315E-2
3.021288958E0,6.786391548E-3,1.717310792E-2,2.764563560E-2,3.324532920E-2
3.031250958E0,4.768021783E-3,1.344565412E-2,2.599379718E-2,2.965125863E-2
3.041212958E0,5.117069723E-3,-1.536483821E-3,2.494188309E-2,2.550769917E-2
3.051174958E0,5.994221735E-3,-8.254642244E-3,1.700311840E-2,1.982866228E-2
3.061136958E0,3.475076779E-3,-2.001140121E-2,-4.553811550E-3,2.081512759E-2
3.071098958E0,5.368539967E-3,-1.900767183E-2,-2.071902394E-2,2.862500241E-2
3.081060958E0,1.812424662E-2,-3.297698066E-2,-3.014765918E-2,4.821670792E-2
3.091022958E0,1.403239023E-2,-4.307822842E-2,3.983123302E-3,4.548084224E-2
3.100984958E0,6.328939428E-3,-3.933337916E-2,2.341225147E-3,3.990803836E-2
3.110945958E0,4.673879327E-3,-3.311168589E-2,-1.038056195E-2,3.501406798E-2
3.120907958E0,3.045068885E-3,-3.309657449E-2,3.545166850E-3,3.342489933E-2
3.130869958E0,8.892092676E-3,-1.775631286E-2,-9.920386076E-3,2.219842378E-2
3.140831958E0,4.729795611E-3,-1.276447177E-2,1.119332492E-2,1.762365538E-2
3.150793958E0,-2.153996617E-3,6.654314138E-3,2.916181862E-2,2.998885232E-2
3.160755958E0,-7.969984483E-3,1.297678052E-2,1.808836162E-2,2.364542897E-2
3.170717958E0,8.871687949E-4,9.625576772E-3,3.455119729E-2,3.587790449E-2
3.180679958E0,-3.186124968E-3,2.949205840E-2,3.514702857E-2,4.599180925E-2
3.190641958E0,3.671087553E-3,1.355536250E-2,5.519830048E-2,5.695680041E-2
3.200603958E0,-1.420879685E-3,2.777628433E-2,2.016646206E-2,3.435443294E-2
3.210565958E0,2.899142596E-3,8.394335881E-3,3.997741342E-3,9.739190855E-3
3.220527958E0,7.038372852E-3,-1.787384190E-3,-1.187394083E-2,1.391847353E-2
3.230489958E0,1.015427813E-2,-3.008319363E-2,3.303267539E-2,4.581774270E-2
3.240451958E0,1.168161311E-2,-2.868501473E-2,5.937847495E-3,3.153645808E-2
3.250413958E0,2.686340377E-2,-4.810248502E-2,6.969881058E-4,5.509970344E-2
3.260374958E0,1.315323167E-3,-4.603138296E-2,-2.250359416E-2,5.125456119E-2
3.270336958E0,1.522335157E-3,-3.600737326E-2,-1.157163978E-2,3.785170116E-2
3.280298958E0,7.296366967E-3,-3.445963355E-2,1.956653774E-2,4.029333337E-2
3.290260958E0,-5.897586218E-3,-1.647542546E-2,-5.577659011E-3,1.836658507E-2
3.300222958E0,-1.546392567E-2,-8.020899799E-3,3.005059540E-2,3.473479689E-2
3.310184958E0,-9.758968663E-3,3.950525075E-4,2.271526337E-2,2.472603336E-2
3.320146958E0,2.460333044E-3,9.819466788E-3,4.232448578E-2,4.351824058E-2
3.330108958E0,-6.864158374E-3,2.775421109E-2,3.124342740E-2,4.235049774E-2
3.340070958E0,-6.444846774E-3,3.065565431E-2,5.084680259E-2,5.972187644E-2
3.350032958E0,5.184971085E-3,3.550067548E-2,3.302741289E-2,4.876465817E-2
3.359994958E0,3.647623316E-3,4.773813039E-3,4.155206859E-2,4.198415000E-2
3.369956958E0,-9.306157770E-3,3.083858080E-3,3.196380436E-2,3.343350928E-2
3.379918958E0,5.225713159E-3,-1.370441169E-3,2.267784119E-2,2.331245735E-2
3.389879958E0,1.142594818E-2,-1.334299894E-2,6.806159019E-3,1.883910064E-2
3.399841958E0,1.549557144E-2,-3.164944343E-2,2.162300348E-3,3.530546058E-2
3.409803958E0,9.685567834E-3,-4.136872184E-2,-6.220268011E-3,4.294034356E-2
3.419765958E0,8.040224161E-4,-3.380392313E-2,-1.428474784E-3,3.384364359E-2
3.429727958E0,7.569668340E-3,-4.796447245E-2,-5.018080473E-3,4.881671464E-2
3.439689958E0,4.314382345E-3,-3.813983453E-2,-1.423797011E-3,3.840947892E-2
3.449651958E0,-3.190839286E-3,-3.355554437E-2,-7.559280396E-3,3.454415629E-2
3.459613958E0,1.536607731E-3,-1.926566195E-2,1.385322332E-2,2.377895477E-2
3.469575958E0,7.074334942E-3,-1.504488587E-3,1.026654124E-2,1.255832671E-2
3.479537958E0,5.427399273E-3,3.380165733E-3,2.209838212E-2,2.300479679E-2
3.489499958E0,8.764516594E-3,6.668036822E-3,2.659372151E-2,2.878377129E-2
3.499461958E0,2.968558297E-4,2.368464036E-2,4.036683798E-2,4.680311871E-2
3.509423958E0,2.942204713E-3,2.291671822E-2,5.099532187E-2,5.598531410E-2
3.519385958E0,6.428166791E-3,2.396333328E-2,5.054625571E-2,5.630707448E-2
3.529346958E0,7.059494777E-3,1.811385183E-2,3.527800620E-2,4.028009205E-2
3.539308958E0,4.030863763E-3,1.242853096E-2,2.015476763E-2,2.401938598E-2
3.549270958E0,2.688605717E-3,4.102369957E-4,1.596055984E-2,1.619062586E-2
3.559232958E0,3.697602734E-3,-2.726553004E-2,7.727095485E-3,2.857952762E-2
3.569194958E0,2.090008435E-4,-2.962025860E-2,1.042032301E-2,3.140042249E-2
3.579156958E0,1.869731487E-2,-5.227377903E-2,1.251713455E-2,5.691059844E-2
3.589118958E0,1.418664823E-2,-3.516431440E-2,-1.307612836E-2,4.010953912E-2
3.599080958E0,4.615069128E-3,-3.391600695E-2,-9.780052900E-3,3.559836829E-2
3.609042958E0,2.495873152E-3,-2.963893315E-2,-2.309591711E-2,3.765789596E-2
3.619004958E0,3.217397294E-3,-1.592586027E-2,-1.980042636E-2,2.561330816E-2
3.628966958E0,7.653034560E-4,-1.363638299E-2,1.372458458E-2,1.936235658E-2
3.638928958E0,-8.405737951E-4,-1.194715893E-2,6.821478724E-2,6.925820074E-2
3.648890958E0,3.978669369E-3,2.126365554E-2,3.048153520E-2,3.737775869E-2
3.658852958E0,-1.313444406E-2,3.374963539E-2,3.645914376E-2,5.138891586E-2
3.668813958E0,1.350686259E-3,2.170172162E-2,6.175010562E-2,6.546651525E-2
3.678775958E0,-4.015729524E-3,3.061556434E-2,2.237495542E-2,3.813236805E-2
3.688737958E0,-2.020308939E-3,2.358576760E-2,5.889432549E-2,6.347370839E-2
3.698699958E0,-2.784077501E-3,5.549427923E-3,1.458354056E-2,1.585013858E-2
3.708661958E0,5.458909142E-3,-7.403689642E-3,1.413213551E-2,1.686213401E-2
3.718623958E0,1.404565496E-2,-3.181225184E-2,1.293462574E-2,3.710261896E-2
3.728585958E0,1.149743724E-2,-2.104993980E-2,-1.475720286E-2,2.816142868E-2
3.738547958E0,1.031271826E-3,-5.200149978E-2,1.593249321E-2,5.439727788E-2
3.748509958E0,4.529150461E-3,-3.506940678E-2,-1.594711125E-2,3.879029328E-2
3.758471958E0,1.054165845E-2,-4.806584856E-2,-1.160263002E-2,5.055762439E-2
3.768433958E0,5.589572713E-3,-4.094353789E-2,-3.068034053E-3,4.143705409E-2
3.778395958E0,-1.076958223E-2,-2.817786014E-2,-3.363318443E-3,3.035272005E-2
3.788357958E0,3.466216876E-3,-1.305895217E-2,1.669964790E-2,2.148090155E-2
3.798319958E0,-2.866838443E-3,-3.098841570E-4,8.462090492E-3,8.939897446E-3
3.808280958E0,-7.825307009E-3,-4.549389593E-3,2.133298159E-2,2.317387492E-2
3.818242958E0,1.080229694E-3,1.802340271E-2,5.680570006E-2,5.960618677E-2
3.828204958E0,-5.481033772E-3,2.477653479E-2,3.959559023E-2,4.702902480E-2
3.838166958E0,4.481628130E-4,2.097129475E-2,7.523904741E-2,7.810832419E-2
3.848128958E0,-1.264763252E-2,2.942063101E-2,3.047978103E-2,4.421032899E-2
3.858090958E0,-1.210361649E-2,1.622441545E-2,-1.128278732E-2,2.317391807E-2
3.868052958E0,2.635698922E-2,1.681111045E-3,7.524138629E-2,7.974197907E-2
3.878014958E0,5.182955966E-3,1.184788417E-2,-4.840149701E-2,5.009930443E-2
3.887976958E0,2.206879886E-2,-2.626512626E-2,3.348466516E-2,4.793862265E-2
3.897938958E0,2.725484289E-3,-4.258483306E-2,-3.088557780E-2,5.267651457E-2
3.907900958E0,2.309622545E-2,-6.988623211E-2,-1.007241368E-2,7.428980136E-2
3.917862958E0,2.813440802E-2,-4.902216068E-2,-7.679148316E-3,5.704109458E-2
3.927824958E0,7.369067729E-3,-3.774900299E-2,-5.879960060E-3,3.890840932E-2
3.937786958E0,9.482196649E-4,-3.652825054E-2,1.687623382E-2,4.024946553E-2
3.947747958E0,-2.338091405E-3,-2.196890283E-2,-1.724928617E-2,2.802922112E-2
3.957709958E0,-1.474328603E-3,-9.964989368E-3,1.973201394E-2,2.215461650E-2
3.967671958E0,-3.938454915E-3,1.752414186E-2,1.838656962E-2,2.570355845E-2
3.977633958E0,-5.272100880E-3,1.979741139E-2,3.740054548E-2,4.264426512E-2
3.987596208E0,-1.644458254E-2,3.431321561E-2,2.602010965E-2,4.609628149E-2
3.997558208E0,-1.686896819E-2,3.412731070E-2,4.427862525E-2,5.839376746E-2
4.007520208E0,-4.287306424E-3,1.429631436E-2,3.558966279E-2,3.859261196E-2
4.017482208E0,-1.752739437E-3,1.618448993E-2,3.243918300E-2,3.629477102E-2
4.027444208E0,5.265657522E-4,6.911043450E-4,2.524710774E-2,2.526205348E-2
4.037406208E0,2.594159479E-3,-7.858475111E-4,1.042266190E-2,1.076935935E-2
4.047368208E0,1.066275863E-2,-1.379149865E-2,1.625525951E-2,2.383554737E-2
4.057330208E0,1.076922021E-2,-3.239096174E-2,-4.105330110E-3,3.438028856E-2
4.067292208E0,2.096086570E-2,-3.779565280E-2,-1.488291800E-2,4.570963257E-2
4.077253208E0,2.254181120E-2,-4.946497763E-2,-1.623011649E-2,5.673036175E-2
4.087215208E0,2.712296762E-2,-4.434745794E-2,-2.401042163E-2,5.726126741E-2
4.097177208E0,2.252933105E-2,-5.016066838E-2,-1.771530926E-2,5.777106189E-2
4.107139208E0,1.275269740E-2,-4.986366637E-2,-6.030233502E-3,5.182065448E-2
4.117101208E0,5.260237427E-3,-1.706127992E-2,8.198381066E-3,1.964614014E-2
4.127063208E0,5.662868475E-3,-1.122038657E-2,2.167972147E-2,2.505943889E-2
4.137025208E0,-4.759029405E-3,-6.123313867E-3,3.590892076E-2,3.673681973E-2
4.146987208E0,-2.488097611E-2,2.139488898E-2,4.803896964E-2,5.817685838E-2
4.156949208E0,-1.082511479E-2,3.915354073E-2,5.028605461E-2,6.464418110E-2
4.166911208E0,-1.699767089E-2,4.306355556E-2,6.001523674E-2,7.579722471E-2
4.176873208E0,-1.807553658E-2,3.805561636E-2,4.294838369E-2,6.016243529E-2
4.186835208E0,-6.451911398E-3,2.928130282E-2,4.758230209E-2,5.624142004E-2
4.196797208E0,4.933722967E-3,1.959670572E-2,2.676972270E-2,3.354087880E-2
4.206759208E0,9.200626948E-3,1.856437979E-2,2.287313819E-2,3.086208327E-2
4.216720208E0,2.226935150E-2,-1.293334667E-2,2.451211274E-2,3.555332816E-2
4.226682208E0,2.091417933E-2,-3.424918860E-2,-1.231365144E-2,4.197661050E-2
4.236644208E0,1.972289822E-2,-3.588660998E-2,-2.114587069E-2,4.608675881E-2
4.246606208E0,1.282397176E-2,-4.762646684E-2,-6.773999333E-3,4.978575763E-2
4.256568208E0,1.022605955E-2,-4.996186305E-2,-1.260893583E-2,5.253327818E-2
4.266530208E0,7.559933639E-3,-5.007615784E-2,-6.468189955E-3,5.105498665E-2
4.276492208E0,5.019514868E-3,-5.041144084E-2,5.363066196E-3,5.094380606E-2
4.286454208E0,2.764250643E-3,-3.982178612E-2,6.116772294E-3,4.038354410E-2
4.296416208E0,-5.121943925E-3,-1.302279079E-2,9.713979363E-3,1.703492837E-2
4.306378208E0,-3.001849739E-3,6.968474071E-3,9.715733528E-3,1.232745759E-2
4.316340208E0,-1.498710351E-2,4.770871159E-3,1.600616813E-2,2.244040778E-2
4.326302208E0,6.535004672E-3,2.659872819E-2,5.253080070E-2,5.924258308E-2
4.336264208E0,-1.163765964E-2,3.332487172E-2,4.609477043E-2,5.805781651E-2
4.346226208E0,-9.461417334E-3,4.583124373E-2,3.905706167E-2,6.095469946E-2
4.356187208E0,8.773487845E-3,2.603909483E-2,2.557689071E-2,3.753912475E-2
4.366149208E0,-9.284220433E-3,5.159875453E-3,2.766551614E-2,2.963447059E-2
4.376111208E0,6.840113983E-3,-4.210013542E-3,2.002495944E-2,2.157568942E-2
4.386073208E0,1.202839754E-2,-2.364104206E-2,1.732529998E-2,3.168197021E-2
4.396035208E0,2.022691679E-2,-4.293705471E-2,-1.231832922E-2,4.903529407E-2
4.405997208E0,2.160122260E-2,-5.944608338E-2,-2.010097325E-2,6.636639792E-2
4.415959208E0,2.082793975E-2,-4.589028234E-2,-1.396607459E-2,5.229505069E-2
4.425921208E0,1.341869526E-2,-4.907087529E-2,-1.815151155E-2,5.401379042E-2
4.435883208E0,1.414234073E-2,-5.167063873E-2,-6.769321561E-3,5.399707791E-2
4.445845208E0,8.131798182E-3,-3.672195783E-2,8.508868217E-3,3.856201715E-2
4.455807208E0,3.782994353E-3,-1.677089257E-2,2.243342757E-2,2.826362603E-2
4.465769208E0,-3.401390441E-3,-7.980316468E-3,4.055160999E-2,4.146912081E-2
4.475731208E0,-1.144400602E-2,6.387279108E-3,2.109207630E-2,2.483220270E-2
4.485693208E0,-2.961936782E-2,2.279339679E-2,2.318128645E-2,4.397974453E-2
4.495654208E0,-6.126207781E-3,3.173311343E-2,6.404338360E-2,7.173615471E-2
4.505616208E0,7.024780931E-3,3.290370774E-2,3.020613134E-2,4.521517334E-2
4.515578208E0,2.838506856E-3,3.411506809E-2,5.070822358E-2,6.118185132E-2
4.525540208E0,-2.493478877E-3,5.718248002E-3,4.336762905E-2,4.381400514E-2
4.535502208E0,-7.442947071E-3,4.618295375E-3,-6.789202094E-3,1.108239046E-2
4.545464208E0,1.327188446E-2,-1.996157197E-2,3.152760208E-2,3.960551686E-2
4.555426208E0,1.399454779E-2,-2.065539893E-2,-9.047981501E-3,2.653975964E-2
4.565388208E0,2.261426642E-2,-4.038682815E-2,3.974352479E-3,4.645746884E-2
4.575350208E0,9.776811807E-3,-4.732398307E-2,-1.113309860E-3,4.833616536E-2
4.585312208E0,1.157756465E-2,-3.648827020E-2,-5.900425315E-3,3.873304641E-2
4.595274208E0,9.617700161E-3,-3.828279896E-2,1.012036085E-2,4.074916632E-2
4.605236208E0,8.110930931E-3,-5.197367068E-2,-1.561908245E-2,5.487262871E-2
4.615198208E0,-3.102594295E-3,-3.093109472E-2,-6.631911993E-3,3.178586114E-2
4.625159208E0,-3.896489722E-3,-8.079097867E-3,-5.577659011E-3,1.056242087E-2
4.635121208E0,5.156788534E-3,-5.589682348E-3,1.134359837E-2,1.365702166E-2
4.645083208E0,2.925865628E-3,1.110176118E-2,4.128368139E-2,4.285034586E-2
4.655045208E0,-7.403361878E-3,2.069797397E-2,3.470147073E-2,4.107807158E-2
4.665007208E0,-2.329725319E-2,2.493641960E-2,3.575280011E-2,4.942519341E-2
4.674969208E0,-8.659277562E-3,3.165423084E-2,4.278816998E-2,5.392402904E-2
4.684931208E0,2.820550650E-4,3.034564225E-2,5.131925762E-2,5.962049783E-2
4.694893208E0,5.226736993E-4,1.513129676E-2,4.652687967E-2,4.892831349E-2
4.704855208E0,4.317216303E-3,6.275414564E-3,3.545049906E-2,3.625957898E-2
4.714817208E0,1.754420511E-3,-1.404409837E-2,1.449232399E-2,2.025690364E-2
4.724779208E0,7.974264828E-3,-2.055616071E-2,1.329656839E-2,2.574768677E-2
4.734741208E0,9.796196697E-3,-3.333426381E-2,-5.712144971E-3,3.521032822E-2
4.744703208E0,2.252642571E-2,-5.012777779E-2,-5.112805367E-3,5.519397377E-2
4.754665208E0,2.583374336E-2,-5.236848565E-2,-6.754703522E-3,5.878321703E-2
4.764626208E0,1.178602246E-3,-4.245365443E-2,-1.603189588E-2,4.539519317E-2
4.774588208E0,9.327921518E-3,-3.390332580E-2,-7.795507908E-3,3.601687887E-2
4.784550208E0,2.015521531E-3,-3.546354566E-2,1.032384396E-2,3.699063600E-2
4.794512208E0,6.800994740E-3,-7.293414809E-3,3.382848144E-2,3.526774143E-2
4.804474208E0,-7.488952781E-3,2.119942753E-2,3.922019899E-2,4.520756740E-2
4.814436208E0,-7.587887213E-3,2.067118641E-2,2.874432743E-2,3.620925764E-2
4.824398208E0,-1.097864531E-2,1.754373003E-2,3.173751712E-2,3.788908958E-2
4.834360208E0,-2.082479459E-2,1.891108314E-2,4.715487063E-2,5.490794987E-2
4.844322208E0,6.041818298E-3,1.102697164E-2,4.266245484E-2,4.447676613E-2
4.854284208E0,-6.682783911E-3,1.803387288E-2,3.397641599E-2,3.904199041E-2
4.864246208E0,4.804778157E-3,5.516811423E-3,2.828122795E-2,2.921213713E-2
4.874208208E0,6.178501532E-3,-1.058874110E-2,2.468694448E-2,2.756339143E-2
4.884170208E0,1.088928570E-3,-1.850165013E-2,1.061503530E-2,2.135827234E-2
4.894132208E0,1.809008495E-2,-3.254081491E-2,-2.408468127E-3,3.730893362E-2
4.904093208E0,2.325373711E-2,-3.822069056E-2,-4.055628777E-3,4.492221724E-2
4.914055208E0,2.386677884E-2,-5.112299217E-2,-2.156862438E-2,6.040189582E-2
4.924017208E0,1.315031034E-2,-5.008617120E-2,-6.594489813E-3,5.220193965E-2
4.933979208E0,5.949488251E-3,-4.360703599E-2,-7.185643315E-3,4.459376041E-2
4.943941208E0,3.566976279E-3,-2.718295639E-2,6.142500043E-3,2.809567128E-2
4.953903208E0,4.990263943E-3,-2.433327930E-2,2.440920174E-2,3.482557028E-2
4.963865208E0,3.114026058E-3,-5.084373280E-3,1.663182020E-2,1.766820458E-2
4.973827208E0,-1.561139313E-2,1.651900548E-2,3.235205948E-2,3.953794242E-2
4.983788958E0,-1.341658021E-2,1.554407364E-2,4.776765883E-2,5.199396196E-2
4.993750958E0,-2.650940283E-2,3.824351298E-2,3.549026012E-2,5.852241696E-2
5.003712958E0,-6.259740143E-3,3.846963577E-2,3.578729868E-2,5.291340066E-2
5.013674958E0,7.521573849E-3,1.383517005E-2,5.000538826E-2,5.242637560E-2
5.023636958E0,3.586308636E-3,1.397435205E-2,2.934425175E-2,3.269907087E-2
5.033597958E0,8.079813923E-3,-1.554051049E-2,2.395136476E-2,2.967252488E-2
5.043559958E0,8.061388912E-3,-2.607746718E-2,1.975715697E-2,3.369518567E-2
5.053521958E0,1.824580133E-2,-2.858888285E-2,7.455199957E-4,3.392328535E-2
5.063483958E0,1.344163302E-2,-4.183503728E-2,-8.083775640E-3,4.467880114E-2
5.073445958E0,1.568358455E-2,-3.145990228E-2,4.519897699E-4,3.515543444E-2
5.083407958E0,1.538511617E-2,-4.407839466E-2,-4.187191129E-3,4.687365192E-2
5.093369958E0,1.641876228E-2,-4.310764723E-2,-9.723334908E-3,4.714221299E-2
5.103331958E0,3.185836034E-3,-2.095484946E-2,3.149895072E-3,2.142841819E-2
5.113293958E0,7.653217285E-3,-1.580867842E-2,-1.403331757E-4,1.756433151E-2
5.123255958E0,1.731188679E-3,-2.121839443E-2,1.198503792E-2,2.443068584E-2
5.133217958E0,2.044866103E-3,5.111416653E-3,3.144515634E-2,3.192343833E-2
5.143179958E0,-1.799088557E-2,5.346474722E-3,6.449478865E-3,1.984571825E-2
5.153141958E0,-1.099356828E-2,1.071871374E-2,3.623811901E-2,3.935671019E-2
5.163103958E0,-1.779864807E-2,1.588052608E-2,2.710476816E-2,3.610611359E-2
5.173064958E0,-1.061402117E-3,1.915854827E-2,3.444010019E-2,3.942457416E-2
5.183026958E0,-4.717459356E-3,9.387156554E-3,1.587986827E-2,1.904057108E-2
5.192988958E0,5.742637287E-3,-6.143651213E-3,3.982889414E-2,4.070704044E-2
5.202950958E0,9.290197841E-3,-1.758531835E-3,8.841574788E-3,1.294502433E-2
5.212912958E0,4.600693771E-3,-1.781209895E-2,7.640556693E-3,1.992022487E-2
5.222874958E0,5.222275636E-3,-3.262198158E-2,6.288680434E-3,3.363054187E-2
5.232836958E0,5.691737389E-3,-3.474220024E-2,1.466715574E-2,3.813845579E-2
5.242798958E0,7.878854714E-3,-3.469617169E-2,-1.452331424E-2,3.842951129E-2
5.252760958E0,1.190930849E-2,-3.338935554E-2,-1.811467409E-2,3.980982428E-2
5.262722958E0,2.476654199E-2,-4.397173779E-2,-2.997282743E-3,5.055570225E-2
5.272684958E0,9.741256853E-3,-2.460268976E-2,-9.585340619E-3,2.814361710E-2
5.282646958E0,-9.801633923E-3,-1.375177413E-2,1.287089109E-2,2.123306753E-2
5.292608958E0,1.115400925E-3,2.284836061E-3,1.481625974E-2,1.503283565E-2
5.302570958E0,2.436221845E-4,3.707737718E-3,3.637318969E-2,3.656248896E-2
5.312531958E0,-4.221995766E-3,4.680696130E-3,3.667490602E-2,3.721267117E-2
5.322493958E0,-7.403832396E-3,8.838651180E-3,2.006062746E-2,2.313800473E-2
5.332455958E0,-3.475479917E-3,6.005602106E-3,3.547798097E-2,3.615015008E-2
5.342417958E0,-1.104571585E-2,4.920907058E-3,1.631431639E-2,2.030714367E-2
5.352379958E0,3.979235818E-3,1.137530124E-2,2.723633051E-2,2.978337616E-2
5.362341958E0,6.993863778E-4,9.026639163E-6,3.037511587E-2,3.038316782E-2
5.372303958E0,1.147219828E-2,-1.974796588E-2,9.863083363E-3,2.487717635E-2
5.382265958E0,8.860398940E-3,-2.524173561E-2,-8.549798727E-3,2.808471016E-2
5.392227958E0,1.029985895E-2,-2.596231358E-2,2.123708725E-2,3.508764306E-2
5.402189958E0,5.876066865E-3,-2.651944360E-2,8.812338710E-3,2.855637169E-2
5.412151958E0,1.771453953E-3,-2.283334058E-2,3.125921488E-3,2.311430025E-2
5.422113958E0,1.426456124E-2,-3.485852329E-2,1.779892445E-3,3.770626434E-2
5.432075958E0,7.029586611E-3,-2.305500487E-2,-8.397771120E-3,2.552392793E-2
5.442037958E0,2.160799715E-3,-3.521180475E-2,-1.184002697E-2,3.721191325E-2
5.451998958E0,2.203316510E-3,-1.623757169E-2,-2.408468127E-3,1.656242907E-2
5.461960958E0,-2.093517906E-3,-9.724869803E-3,1.061678946E-2,1.454895626E-2
5.471922958E0,-4.834072479E-3,-1.718131229E-3,2.184578240E-2,2.244010785E-2
5.481884958E0,-2.468432923E-3,5.008030571E-3,3.022893548E-2,3.074023539E-2
5.491846958E0,-1.076272888E-2,5.978503916E-3,5.193146110E-2,5.337092367E-2
5.501808958E0,-3.642176954E-3,1.067988457E-2,2.708137929E-2,2.933814057E-2
5.511770958E0,-1.046984733E-2,1.060498539E-2,3.486285388E-2,3.791440359E-2
5.521732958E0,8.176479132E-3,6.270590611E-3,2.258837879E-2,2.482760508E-2
5.531694958E0,-8.014878994E-3,-5.015979130E-3,1.809479356E-2,2.041616727E-2
5.541656958E0,1.131466036E-2,-4.432390463E-3,1.240720689E-2,1.736681914E-2
5.551618958E0,1.217919403E-2,-1.962384045E-2,2.183935046E-2,3.178655549E-2
5.561580958E0,1.185533823E-2,-2.203183349E-2,1.180611312E-2,2.766468938E-2
5.571542958E0,1.194849283E-2,-2.245515363E-2,8.362103105E-3,2.677545842E-2
5.581503958E0,6.963437700E-3,-2.677540546E-2,2.373969555E-3,2.776774268E-2
5.591465958E0,1.476870772E-3,-1.733661069E-2,2.783274651E-4,1.740162876E-2
5.601427958E0,9.980018539E-3,-8.119882196E-3,9.111716151E-3,1.576567880E-2
5.611389958E0,-4.593847847E-3,-8.923764713E-3,8.065649271E-3,1.287601308E-2
5.621351958E0,-7.229235907E-3,-4.471859168E-3,1.450343370E-2,1.681097753E-2
5.631313958E0,-1.666827622E-3,-2.486711182E-3,2.094355702E-2,2.115643230E-2
5.641275958E0,-3.083108906E-3,2.284086887E-3,3.022484243E-2,3.046742052E-2
5.651237958E0,-1.075074209E-2,1.086851209E-2,1.196106434E-2,1.941056596E-2
5.661199958E0,6.172923837E-5,-2.278641667E-3,2.169024646E-2,2.180969532E-2
5.671161958E0,2.524940780E-3,9.134520292E-3,4.234612048E-2,4.339364823E-2
5.681123958E0,-4.848442697E-3,-1.278603338E-3,2.019043565E-2,2.080374761E-2
5.691085958E0,1.263728341E-3,-9.293546285E-3,1.135646224E-2,1.472875577E-2
5.701047958E0,7.793795998E-3,-1.439410904E-2,1.255455673E-2,2.062887602E-2
5.711009958E0,1.298668652E-2,-1.761195973E-2,2.467700422E-2,3.298165686E-2
5.720970958E0,5.833105819E-3,-3.456373226E-2,-8.852099776E-3,3.615295813E-2
5.730932958E0,4.135887522E-3,-2.747778397E-2,8.967874646E-3,2.919857793E-2
5.740894958E0,6.899669931E-3,-2.351112423E-2,1.331118643E-2,2.788487210E-2
5.750856958E0,6.752666133E-4,-1.917175932E-2,5.532050729E-3,1.996536816E-2
5.760818958E0,2.189725160E-4,-1.878651917E-2,2.394551754E-2,3.043631157E-2
5.770780958E0,5.423033847E-3,-2.162218122E-2,4.789454341E-3,2.280058968E-2
5.780742958E0,-3.509245303E-3,-1.360076979E-2,1.212654054E-2,1.855663566E-2
5.790704958E0,-2.693778904E-2,2.036943354E-2,2.140314817E-2,3.998315961E-2
5.800666958E0,1.991517112E-3,2.005817894E-2,5.044275999E-2,5.432097862E-2
5.810628958E0,6.547472260E-3,1.708675185E-2,2.544415891E-2,3.134057601E-2
5.820590958E0,-7.755491597E-3,1.436426997E-2,2.035532713E-2,2.609251318E-2
5.830552958E0,-9.746680374E-4,8.110892102E-3,3.397583127E-2,3.494415057E-2
5.840514958E0,9.206519274E-3,-2.607072461E-3,2.559150875E-2,2.732182541E-2
5.850475958E0,7.717072421E-3,-8.196224906E-3,1.990041375E-2,2.286389680E-2
5.860437958E0,6.613717673E-3,-2.200102597E-2,1.032092035E-2,2.518546808E-2
5.870399958E0,7.369080863E-3,-2.424995648E-2,1.639559269E-3,2.539787189E-2
5.880361958E0,1.241834173E-2,-3.402620869E-2,-3.448687792E-3,3.638532034E-2
5.890323958E0,6.964507215E-3,-3.553855447E-2,3.587266803E-3,3.639178063E-2
5.900285958E0,1.211028254E-2,-3.464566637E-2,-7.537060976E-4,3.670898002E-2
5.910247958E0,7.988210780E-3,-2.178091485E-2,1.122197628E-2,2.577115665E-2
5.920209958E0,4.534926871E-3,-7.623800766E-3,-6.010937691E-4,8.890962465E-3
5.930171958E0,-3.860825133E-3,-1.055276245E-3,2.349937499E-2,2.383778940E-2
5.940133958E0,8.699525135E-3,1.322311275E-3,2.604466796E-2,2.749099805E-2
5.950095958E0,6.730413594E-3,1.513060240E-2,3.173166990E-2,3.579291090E-2
5.960057958E0,-9.031786312E-3,2.263824457E-2,1.002622068E-2,2.635504472E-2
5.970019958E0,-6.147245195E-3,7.461430896E-3,3.068034053E-2,3.216745047E-2
5.979980958E0,5.290566433E-3,4.143464919E-3,1.451045036E-2,1.599098385E-2
5.989942417E0,1.122334215E-3,-6.086586043E-5,2.409052849E-2,2.411673489E-2
5.999904417E0,-2.722623493E-3,1.006402658E-2,-8.843913674E-3,1.367158070E-2
6.009866417E0,-5.138674728E-4,-7.184747960E-3,1.840060294E-2,1.976023409E-2
6.019828417E0,2.308795941E-3,-2.958890291E-2,-1.625525951E-4,2.967928802E-2
6.029790417E0,9.264454104E-3,-2.973839063E-2,6.723128557E-3,3.186538004E-2
6.039752417E0,2.008439776E-3,-3.160549795E-2,7.773288488E-3,3.260928311E-2
6.049714417E0,9.635368574E-3,-2.972817628E-2,5.081230402E-3,3.166107539E-2
6.059676417E0,5.671179058E-3,-2.354353974E-2,4.036332965E-3,2.455101870E-2
6.069638417E0,5.314977416E-3,-2.290242909E-2,1.479345560E-4,2.351153180E-2
6.079600417E0,1.016868032E-2,-1.145469546E-2,3.383023560E-2,3.713619459E-2
6.089562417E0,-4.666972304E-3,-3.965636473E-3,2.739362061E-2,2.806986557E-2
6.099524417E0,1.685084183E-3,6.655611489E-3,1.586758912E-2,1.728921795E-2
6.109486417E0,-6.932638177E-3,6.890596468E-3,2.709599733E-2,2.880511870E-2
6.119447417E0,-6.272182607E-3,1.858966900E-2,3.233451784E-2,3.782111992E-2
6.129409417E0,4.598726617E-3,2.499470903E-2,2.903785765E-2,3.858861157E-2
6.139371417E0,2.023696213E-4,1.418328037E-2,3.098439574E-2,3.407695959E-2
6.149333417E0,2.160751750E-4,1.359744418E-2,4.221104980E-2,4.434760311E-2
6.159295417E0,-3.928912076E-3,2.109730225E-3,1.317026854E-2,1.390479360E-2
6.169257417E0,2.265276440E-4,-1.370671403E-2,1.840703487E-2,2.295090972E-2
6.179219417E0,5.975397583E-3,-2.228052288E-2,2.095291257E-2,3.116330569E-2
6.189181417E0,4.676422637E-3,-2.819344662E-2,-1.692885876E-2,3.321634567E-2
6.199143417E0,1.150317482E-2,-4.410699120E-2,-1.064076304E-2,4.680785769E-2
6.209105417E0,1.493967368E-2,-4.363893986E-2,3.381620228E-2,5.719341272E-2
6.219067417E0,-6.305720728E-3,-1.800947903E-2,-5.359791756E-2,5.689323523E-2
6.229029417E0,3.154385551E-2,-4.217260435E-2,5.358973145E-2,7.513589485E-2
6.238991417E0,2.026692911E-3,-9.960530866E-3,-2.873497188E-2,3.047980099E-2
6.248952417E0,1.840966841E-2,-2.501658127E-2,5.285239756E-2,6.130351668E-2
6.258914417E0,-9.788724367E-3,-1.324683052E-2,1.109099865E-2,1.985718748E-2
6.268876417E0,2.174890134E-4,2.160801999E-3,2.516700089E-2,2.526052851E-2
6.278838417E0,-1.032244839E-3,1.922548061E-2,3.295081437E-2,3.816334369E-2
6.288800417E0,-8.829068370E-3,1.454440076E-2,3.414949358E-2,3.815337407E-2
6.298762417E0,5.475540587E-3,1.772353191E-2,5.630225480E-2,5.927941483E-2
6.308724417E0,-9.662888175E-3,5.740503967E-3,3.174862683E-2,3.367937201E-2
6.318686417E0,5.105283929E-3,8.231326472E-3,4.207422495E-2,4.317475031E-2
6.328648417E0,-9.514935346E-3,-3.587449528E-4,1.317728519E-2,1.625741485E-2
6.338610417E0,-1.006707810E-2,-2.067664990E-2,6.738916039E-3,2.396420042E-2
6.348572417E0,7.401193155E-4,-2.193137102E-2,2.994359136E-3,2.214721197E-2
6.358534417E0,2.637282695E-3,-4.342836700E-2,1.495717764E-3,4.353407277E-2
6.368496417E0,5.320332415E-3,-2.830949558E-2,-8.084360361E-3,2.991806076E-2
6.378458417E0,3.754787247E-3,-3.404391479E-2,1.242416382E-2,3.643413795E-2
6.388419417E0,4.514696875E-3,-3.949359287E-2,2.995528579E-3,3.986351160E-2
6.398381417E0,1.898218619E-3,-2.845783213E-2,-8.075589538E-3,2.964231081E-2
6.408343417E0,4.043936629E-3,-3.615806697E-2,1.213940442E-2,3.835523915E-2
6.418305417E0,5.094621896E-3,-1.562145788E-2,9.598204494E-3,1.902920514E-2
6.428267417E0,4.538738981E-3,-6.727513969E-3,1.858186662E-2,2.027671973E-2
6.438229417E0,2.972861482E-3,1.991477598E-2,2.636626482E-2,3.317553508E-2
6.448191417E0,3.134972110E-3,1.525028760E-2,4.492825091E-2,4.754941694E-2
6.458153417E0,-7.660586833E-3,2.888751112E-2,5.150929213E-2,5.955149087E-2
6.468115417E0,-1.576982527E-2,2.964068731E-2,4.461893320E-2,5.584001194E-2
6.478077417E0,-1.114499175E-2,1.296676716E-2,4.206662357E-2,4.540868540E-2
6.488039417E0,8.820616174E-3,1.148332855E-2,2.873964965E-2,3.218132325E-2
6.498001417E0,-6.577021256E-4,-5.857594460E-3,1.406489253E-2,1.525008809E-2
6.507963417E0,-8.137277663E-3,-1.274764275E-2,-2.255855799E-3,1.529073474E-2
6.517924417E0,8.856366416E-3,-2.725279408E-2,-9.291810393E-3,3.012453736E-2
6.527886417E0,3.165717957E-3,-4.283293772E-2,1.486362219E-3,4.297547669E-2
6.537848417E0,1.422582686E-2,-5.470311441E-2,-8.541612625E-3,5.716435972E-2
6.547810417E0,1.229600930E-2,-5.510953244E-2,-1.512440801E-2,5.845511208E-2
6.557772417E0,2.757492084E-3,-4.709955962E-2,-6.436030269E-3,4.761716880E-2
6.567734417E0,1.053625891E-2,-3.263500990E-2,2.006530523E-2,3.973251939E-2
6.577696417E0,5.098842284E-3,-1.848677628E-2,1.722823620E-2,2.577927874E-2
6.587658417E0,5.450307910E-3,-1.169205587E-2,9.750816822E-3,1.617060468E-2
6.597620417E0,-3.540466237E-3,-4.154008180E-3,2.741700947E-2,2.795501911E-2
6.607582417E0,-8.008985526E-3,1.731398927E-2,4.762791038E-2,5.130629513E-2
6.617544417E0,-1.902851281E-3,1.785357764E-2,2.966701806E-2,3.467712557E-2
6.627506417E0,-9.366410358E-3,3.484014111E-2,4.104102194E-2,5.464366896E-2
6.637468417E0,-4.320999862E-3,2.886801431E-2,5.241268694E-2,5.999269158E-2
6.647430417E0,-9.563418129E-4,3.311124735E-2,2.665979505E-2,4.252074743E-2
6.657391417E0,-5.215369184E-3,1.245425871E-2,2.141659677E-2,2.531756807E-2
6.667353417E0,5.435095442E-3,9.846893884E-3,1.886428714E-2,2.196276191E-2
6.677315417E0,3.857408166E-3,-9.856158067E-3,1.810941160E-2,2.097556288E-2
6.687277417E0,8.653638196E-3,-3.488669956E-2,-2.401451468E-3,3.602407847E-2
6.697239417E0,5.953672664E-3,-4.243105128E-2,-1.123600960E-2,4.429546526E-2
6.707201417E0,9.667741820E-3,-5.274301808E-2,-6.146593094E-3,5.397288018E-2
6.717163417E0,8.728336376E-3,-5.462600425E-2,-3.024413824E-2,6.304674531E-2
6.727125417E0,2.022540474E-2,-5.506518496E-2,4.467272758E-4,5.866379767E-2
6.737087417E0,1.305970705E-2,-4.361781679E-2,6.034326553E-4,4.553497580E-2
6.747049417E0,8.076818367E-3,-1.937241018E-2,1.198445320E-2,2.416924470E-2
6.757011417E0,7.163261727E-3,-1.331418313E-2,2.141659677E-2,2.621546124E-2
6.766973417E0,-7.997659401E-3,1.757276511E-2,2.995177746E-2,3.563528592E-2
6.776935417E0,-2.460193145E-3,2.605707502E-2,5.090995252E-2,5.724375053E-2
6.786896417E0,-1.041105769E-2,2.148826171E-2,4.447099864E-2,5.047578859E-2
6.796858417E0,-1.915506506E-2,3.708718954E-2,6.063679576E-2,7.361519643E-2
6.806820417E0,-7.317040073E-3,3.698734833E-2,4.820620000E-2,6.120000597E-2
6.816782417E0,-1.986086739E-3,2.833964529E-2,3.936462522E-2,4.854537829E-2
6.826744417E0,6.081353242E-3,1.505795075E-2,1.630203724E-2,2.301045754E-2
6.836706417E0,4.240821060E-3,-7.441130094E-3,1.839007795E-2,2.028669385E-2
6.846668417E0,3.515141626E-3,-6.810124163E-3,7.307265401E-3,1.058915197E-2
6.856630417E0,6.905408653E-3,-2.314073967E-2,-1.006071925E-2,2.616097423E-2
6.866592417E0,1.545043596E-2,-5.277165117E-2,-1.260542750E-2,5.641329578E-2
6.876554417E0,1.023716013E-2,-5.329384407E-2,-1.963845849E-2,5.771223713E-2
6.886516417E0,9.908669946E-3,-5.713674383E-2,-1.559393942E-2,6.004964765E-2
6.896478417E0,6.230356742E-4,-3.560870279E-2,-2.142653704E-2,4.156277634E-2
6.906440417E0,1.697478681E-3,-4.509855106E-2,-5.403411984E-3,4.545280633E-2
6.916402417E0,3.778377108E-3,-3.175531458E-2,9.574230909E-3,3.338176201E-2
6.926363417E0,4.690502778E-3,8.187947441E-3,1.377077758E-2,1.669363995E-2
6.936325417E0,-1.622170655E-3,3.406898472E-3,3.173751712E-2,3.196104485E-2
6.946287417E0,-8.125812780E-3,2.578596521E-2,4.760686040E-2,5.474813232E-2
6.956249417E0,-3.912973845E-3,3.756289707E-2,5.748807013E-2,6.878343411E-2
6.966211417E0,-1.936414185E-2,4.995440785E-2,5.598767459E-2,7.749214515E-2
6.976173417E0,-4.870799161E-3,4.585987682E-2,4.879969239E-2,6.714359957E-2
6.986135417E0,-1.676660537E-3,2.932068016E-2,4.759516597E-2,5.592685669E-2
6.996097417E0,8.854294766E-4,2.104045635E-2,2.124234974E-2,2.991190752E-2
7.006059417E0,7.872339408E-3,-4.179078117E-3,2.437879622E-2,2.595696683E-2
7.016021417E0,6.688301079E-3,-2.384498198E-2,-1.075887680E-3,2.478858752E-2
7.025983417E0,1.405044808E-4,-3.847674379E-2,-1.789247990E-4,3.847741634E-2
7.035945417E0,1.677448655E-2,-5.150702633E-2,2.707260847E-4,5.417038354E-2
7.045907417E0,1.639641610E-2,-4.721590094E-2,-5.715653300E-3,5.030757851E-2
7.055868417E0,6.538466178E-3,-6.450670235E-2,-1.948467672E-2,6.770168990E-2
7.065830417E0,1.370821466E-3,-4.748752238E-2,-1.184470475E-2,4.896162747E-2
7.075792417E0,5.205112573E-3,-4.561560938E-2,3.430561423E-3,4.603961086E-2
7.085754417E0,8.589267433E-3,-1.903900925E-2,7.478588820E-3,2.218532576E-2
7.095716417E0,-4.320554469E-3,-4.151157662E-3,3.247894406E-2,3.302697546E-2
7.105678417E0,-2.676736554E-3,1.645675091E-2,3.607322752E-2,3.973999639E-2
7.115640417E0,4.334143535E-3,3.466046713E-2,4.056564331E-2,5.353227250E-2
7.125602417E0,5.722335343E-3,2.503618771E-2,4.879501462E-2,5.514081309E-2
7.135564417E0,4.278795985E-3,2.457807664E-2,3.980959833E-2,4.698078400E-2
7.145526417E0,1.238143346E-3,4.097175071E-2,6.120806873E-2,7.366576568E-2
7.155488417E0,2.603838220E-5,3.587007333E-2,4.742793560E-2,5.946487967E-2
7.165450417E0,1.315679253E-2,2.268504057E-2,4.367694676E-2,5.094495003E-2
7.175412417E0,1.795133692E-2,-1.963421926E-3,2.285968959E-2,2.913195721E-2
7.185374417E0,9.996397595E-3,-2.211853674E-2,2.508455515E-4,2.427386569E-2
7.195335417E0,9.819770569E-3,-3.584673928E-2,-1.682010055E-2,4.079623014E-2
7.205297417E0,1.781149368E-2,-5.375719937E-2,-4.097728729E-3,5.677919664E-2
7.215259417E0,7.215450411E-3,-7.168695526E-2,-1.966184735E-2,7.468380360E-2
7.225221417E0,5.950091245E-3,-6.739239464E-2,1.450109482E-3,6.767009131E-2
7.235183417E0,5.209268436E-3,-4.554827504E-2,-1.890287876E-2,4.958932004E-2
7.245145417E0,-5.272080323E-3,-5.036837244E-2,-4.030251861E-2,6.472295404E-2
7.255107417E0,-2.836407797E-3,-2.022464186E-2,3.413604498E-3,2.070589392E-2
7.265069417E0,-7.537298519E-3,-1.253496855E-5,9.859575033E-3,1.241056993E-2
7.275031417E0,-9.737069013E-3,1.883333344E-2,2.618032336E-2,3.368848903E-2
7.284993417E0,-1.006563114E-2,3.236991176E-2,3.950554311E-2,5.205589356E-2
7.294955417E0,-8.937972762E-3,4.527780477E-2,4.878507435E-2,6.715616458E-2
7.304917417E0,-2.427882710E-3,4.805786345E-2,5.686592638E-2,7.449286166E-2
7.314879417E0,7.405665361E-3,4.657499129E-2,4.159241438E-2,6.288086058E-2
7.324841417E0,6.690210560E-3,2.429498004E-2,4.862252176E-2,5.476453775E-2
7.334802417E0,1.080540899E-2,7.834866978E-3,1.867542207E-2,2.295459417E-2
7.344764417E0,2.100970365E-2,-1.056785557E-2,1.253350675E-2,2.664912776E-2
7.354726417E0,2.152225550E-2,-1.703750733E-2,-8.875488639E-3,2.884888969E-2
7.364688417E0,2.729898251E-2,-3.282325370E-2,-6.333119273E-3,4.315911062E-2
7.374650417E0,1.900817889E-3,-5.856136311E-2,-1.950631142E-2,6.175388686E-2
7.384612417E0,3.109200964E-3,-6.073287282E-2,-2.040210485E-2,6.414354881E-2
7.394574417E0,6.992865640E-3,-6.065243706E-2,-6.024971008E-3,6.135078294E-2
7.404536417E0,-7.611376574E-3,-7.295344390E-2,-1.859356105E-2,7.566940295E-2
7.414498417E0,-4.784626962E-3,-5.288636623E-2,-1.050159931E-2,5.413080432E-2
7.424460417E0,6.387584031E-3,-3.484514778E-2,-5.106373429E-3,3.579190696E-2
7.434422417E0,5.842810826E-3,-1.359726146E-2,1.914787710E-2,2.420051972E-2
7.444384417E0,-2.210108188E-3,1.876397084E-2,4.130590081E-2,4.542189584E-2
7.454346417E0,6.342310365E-3,1.290807573E-2,4.804189324E-2,5.014844790E-2
7.464307417E0,-3.688698864E-3,3.300647255E-2,5.088480949E-2,6.076427871E-2
7.474269417E0,9.204476746E-4,4.148489870E-2,4.534340322E-2,6.146436577E-2
7.484231417E0,4.418185840E-3,4.520380095E-2,3.994642317E-2,6.048653330E-2
7.494193417E0,7.353007301E-3,2.662167851E-2,4.547613502E-2,5.320582054E-2
7.504155417E0,4.583095594E-3,2.204720071E-2,4.217655122E-2,4.781156029E-2
7.514117417E0,1.825795714E-2,-1.483427648E-2,1.597400844E-2,2.843550076E-2
7.524079417E0,1.047939816E-2,-2.685576813E-2,-7.684995532E-3,2.983469833E-2
7.534041417E0,1.698484699E-2,-5.587327017E-2,3.387292027E-3,5.849599211E-2
7.544003417E0,8.526558329E-3,-6.135854317E-2,-9.787069559E-3,6.271650299E-2
7.553965417E0,5.659202544E-4,-4.530797275E-2,-3.104403734E-2,5.492599489E-2
7.563927417E0,7.323213910E-3,-5.390959242E-2,-1.981504440E-2,5.790086011E-2
7.573889417E0,2.835651770E-3,-4.644927615E-2,-1.247503459E-2,4.817886118E-2
7.583851417E0,-1.020221045E-2,-3.524440298E-2,-2.440627813E-3,3.677240410E-2
7.593812417E0,-1.693043020E-4,-1.380606188E-2,2.058219910E-3,1.395966610E-2
7.603774417E0,-3.197377432E-3,8.902093470E-3,1.448823094E-2,1.730258150E-2
7.613736417E0,-4.281657923E-3,1.636039976E-2,2.601952493E-2,3.103241777E-2
7.623698417E0,8.166171131E-3,4.111933809E-2,3.769816875E-2,5.637941329E-2
7.633660417E0,2.470337836E-3,3.983925467E-2,4.982061625E-2,6.383856660E-2
7.643622417E0,4.083861007E-3,3.411177903E-2,6.882816017E-2,7.692598405E-2
7.653584417E0,6.583055765E-3,4.883402651E-2,4.861375093E-2,6.921990717E-2
7.663546417E0,1.238391168E-3,3.114802642E-2,4.231863856E-2,5.256044456E-2
7.673508417E0,7.235034015E-3,1.966930255E-2,4.096500814E-2,4.601477015E-2
7.683470417E0,1.490566047E-3,-5.139154382E-4,1.386608720E-2,1.395543874E-2
7.693432417E0,1.758536403E-2,-3.035543634E-2,-1.409178972E-3,3.510959027E-2
7.703394417E0,7.906848259E-3,-4.528078320E-2,-5.901010036E-3,4.634317097E-2
7.713356417E0,9.131215245E-4,-5.709743958E-2,-1.069163382E-2,5.809700880E-2
7.723318417E0,1.327868414E-3,-6.932718348E-2,-2.565699756E-2,7.393445156E-2
7.733279417E0,7.455447778E-3,-6.020430280E-2,-2.205979049E-2,6.455057036E-2
7.743241417E0,5.532739375E-3,-5.543531371E-2,-9.330986738E-3,5.648674645E-2
7.753203417E0,-2.766891026E-3,-3.030723335E-2,-1.142195106E-2,3.250607705E-2
7.763165417E0,-2.089123358E-4,-2.507218463E-2,1.972265840E-2,3.190049123E-2
7.773127417E0,-6.440468214E-4,9.495914765E-3,4.622282445E-2,4.719254914E-2
7.783089417E0,-7.874407632E-3,3.023414316E-2,4.293142676E-2,5.309630036E-2
7.793051417E0,-8.125205218E-3,4.364937348E-2,3.694563210E-2,5.776042327E-2
7.803013417E0,-1.313470787E-3,4.477580303E-2,4.936745703E-2,6.666140980E-2
7.812975417E0,-7.392022619E-3,3.787533939E-2,4.921367526E-2,6.253934094E-2
7.822937417E0,7.281831155E-3,3.185795149E-2,5.654432952E-2,6.530861612E-2
7.832899417E0,-1.165479129E-3,5.092870016E-3,3.049322963E-2,3.093756163E-2
7.842861417E0,2.583092025E-3,5.269053932E-3,2.794325888E-2,2.855277588E-2
7.852823417E0,1.936370331E-2,-8.062999751E-3,2.165223956E-2,3.014605196E-2
7.862784417E0,4.101724707E-3,-3.730622258E-2,1.441338658E-3,3.755869867E-2
7.872746417E0,8.111600163E-3,-4.699105723E-2,-1.278084397E-2,4.936909448E-2
7.882708417E0,4.965028411E-4,-5.258877950E-2,-5.087077618E-4,5.259358352E-2
7.892670417E0,-9.564308915E-5,-5.968156172E-2,-1.921804368E-2,6.269953078E-2
7.902632417E0,8.008441346E-3,-5.652786596E-2,-1.951332808E-2,6.033493793E-2
7.912594417E0,7.863255667E-3,-4.967872990E-2,-2.115464151E-2,5.456487746E-2
7.922556417E0,2.974132566E-3,-3.163442340E-2,-1.837779880E-3,3.182702693E-2
7.932518417E0,2.406273137E-3,-1.535789464E-2,1.298725069E-2,2.025644980E-2
7.942480417E0,-7.529319125E-3,4.439553302E-3,1.733173192E-2,1.941105899E-2
7.952442417E0,3.452921313E-3,1.991589060E-2,4.218239844E-2,4.677520820E-2
7.962404417E0,-4.734954180E-3,2.346456578E-2,3.859103858E-2,4.541226594E-2
7.972366417E0,-6.657854444E-3,3.366680592E-2,4.098547339E-2,5.345642970E-2
7.982328417E0,5.032728205E-4,2.368933640E-2,4.247651339E-2,4.863838127E-2
7.992291042E0,2.726016477E-3,2.792235509E-2,4.142284513E-2,5.002940313E-2
8.002252042E0,7.165576631E-3,2.145226479E-2,3.108613729E-2,3.844337504E-2
8.012214042E0,7.675110083E-4,2.627227083E-3,3.063180864E-2,3.075384684E-2
8.022176042E0,8.028750143E-3,-9.271966405E-3,1.326557815E-2,1.806670290E-2
8.032138042E0,5.874571942E-3,-2.888559250E-2,-1.109216809E-3,2.949776960E-2
8.042100042E0,1.661901571E-2,-5.233850040E-2,-1.563019216E-2,5.709477396E-2
8.052062042E0,4.817989210E-3,-4.888761990E-2,-9.942605495E-3,5.012053275E-2
8.062024042E0,3.816510775E-3,-5.716744171E-2,-1.053960621E-2,5.825603356E-2
8.071986042E0,5.703764723E-4,-4.964368315E-2,2.037169933E-3,4.968873784E-2
8.081948042E0,1.414791842E-2,-2.783011526E-2,3.839281797E-3,3.145503133E-2
8.091910042E0,3.354448263E-3,-1.347909288E-2,-6.783354878E-3,1.545807787E-2
8.101872042E0,-8.524765335E-3,-1.038262675E-2,3.274031460E-2,3.538924642E-2
8.111834042E0,4.074612813E-3,8.800772186E-3,2.675685883E-2,2.846024517E-2
8.121796042E0,8.159021996E-3,2.407411974E-2,2.226619720E-2,3.379225383E-2
8.131757042E0,-9.096152508E-3,2.441744266E-2,3.199888766E-2,4.126597034E-2
8.141719042E0,5.235497538E-3,3.045810979E-2,3.963184297E-2,5.025723693E-2
8.151681042E0,-1.001562603E-2,1.437671358E-2,3.708421111E-2,4.101513589E-2
8.161643042E0,5.678772444E-3,2.214627447E-2,4.127140224E-2,4.718087083E-2
8.171605042E0,6.992142732E-3,1.185871979E-2,2.884139121E-2,3.195849092E-2
8.181567042E0,2.012009775E-3,3.791499082E-3,1.850819170E-2,1.899938970E-2
8.191529042E0,4.980388773E-3,-2.329823077E-3,6.078765392E-3,8.196568586E-3
8.201491042E0,1.190779301E-2,-2.514562201E-2,-4.252679944E-3,2.814574794E-2
8.211453042E0,-6.624518463E-4,-3.458893010E-2,-2.104997635E-4,3.459591361E-2
8.221415042E0,1.617430755E-2,-5.003464261E-2,-1.098691821E-2,5.371951282E-2
8.231377042E0,1.576237921E-2,-4.668371296E-2,9.238600731E-5,4.927301684E-2
8.241339042E0,4.323132040E-3,-3.935972817E-2,-7.536476254E-3,4.030727164E-2
8.251301042E0,5.810898961E-4,-3.280819712E-2,-7.231251597E-3,3.360069141E-2
8.261263042E0,7.421354628E-3,-3.585238550E-3,2.330875576E-2,2.472303652E-2
8.271224042E0,-1.139814192E-3,9.376942199E-3,2.989681363E-2,3.135355939E-2
8.281186042E0,1.655700782E-3,1.921530280E-2,4.262152433E-2,4.678208571E-2
8.291148042E0,-2.463735736E-3,3.786764665E-2,3.903074920E-2,5.443737723E-2
8.301110042E0,-1.956246068E-2,1.984614428E-2,5.684078336E-2,6.330429656E-2
8.311072042E0,-3.402161314E-3,3.481602134E-2,4.126847863E-2,5.410006814E-2
8.321034042E0,4.825475245E-3,2.011321586E-2,3.572648764E-2,4.128206126E-2
8.330996042E0,5.950179182E-3,6.763693616E-3,3.108262897E-2,3.236173677E-2
8.340958042E0,1.487926692E-2,-2.829248384E-3,2.568974197E-2,2.982214065E-2
8.350920042E0,2.714681786E-3,-1.468882699E-2,1.760304272E-2,2.308675483E-2
8.360882042E0,2.549910218E-3,-1.537611237E-2,1.296093822E-2,2.027098402E-2
8.370844042E0,1.277152041E-2,-3.824106446E-2,7.421286106E-3,4.099470980E-2
8.380806042E0,4.151211338E-3,-5.155449841E-2,9.815720916E-3,5.264453665E-2
8.390768042E0,7.141714966E-3,-3.195929104E-2,-9.643228054E-3,3.413784153E-2
8.400729042E0,1.464989846E-2,-3.424726998E-2,-1.308489919E-2,3.948049662E-2
8.410691042E0,1.334803988E-3,-3.887216175E-2,-9.039210677E-3,3.993161643E-2
8.420653042E0,7.610229972E-3,-1.699909844E-2,1.147223711E-2,2.187457822E-2
8.430615042E0,2.208821116E-3,-1.030750830E-2,1.898006201E-3,1.071102449E-2
8.440577042E0,2.056694152E-3,-4.070265088E-3,1.956302941E-2,2.008753764E-2
8.450539042E0,-4.211292621E-3,1.581617016E-2,4.171754479E-2,4.481338827E-2
8.460501042E0,-7.872356538E-3,2.027564054E-2,3.079143763E-2,3.769865021E-2
8.470463042E0,-2.491198234E-3,2.447584173E-2,2.674925745E-2,3.634275266E-2
8.480425042E0,-4.436478945E-3,2.735910377E-2,4.411197960E-2,5.209673357E-2
8.490387042E0,-1.741083035E-2,6.132523231E-3,3.707134724E-2,4.141291635E-2
8.500349042E0,1.306307948E-3,3.139260449E-3,2.598970413E-2,2.621118306E-2
8.510311042E0,4.841395203E-3,6.043535918E-3,2.074416697E-2,2.214235528E-2
8.520273042E0,-1.180814366E-3,-7.974396162E-3,2.118738592E-2,2.266915611E-2
8.530235042E0,-1.188373491E-3,-3.280141801E-2,9.207025766E-3,3.408980168E-2
8.540196042E0,2.832521454E-3,-3.643122330E-2,2.317836285E-3,3.661460875E-2
8.550158042E0,7.125260535E-3,-3.597356904E-2,-1.414792299E-2,3.930687894E-2
8.560120042E0,1.205325963E-2,-5.178962957E-2,-1.624064147E-2,5.559860820E-2
8.570082042E0,1.253195130E-2,-4.165719057E-2,2.176918387E-3,4.355582972E-2
8.580044042E0,3.794728755E-4,-1.988570435E-2,9.364900589E-3,2.198378039E-2
8.590006042E0,4.416529890E-3,-2.142697558E-2,9.819813967E-3,2.398019527E-2
8.599968042E0,-9.460986787E-3,-1.307335094E-2,1.850702226E-2,2.455468690E-2
8.609930042E0,-9.358264228E-3,2.429700829E-4,2.854084432E-2,3.003690960E-2
8.619892042E0,-1.962139650E-2,3.089566424E-2,2.914076865E-2,4.678381843E-2
8.629854042E0,-5.639369977E-3,2.890061254E-2,1.746154010E-2,3.423380320E-2
8.639816042E0,1.046910844E-3,2.367594263E-2,5.787281692E-2,6.253726265E-2
8.649778042E0,-3.939670039E-3,1.408046074E-2,2.688315868E-2,3.060203581E-2
8.659740042E0,4.830180426E-3,5.027746651E-3,3.182054758E-2,3.257539144E-2
8.669701042E0,-1.572879312E-3,8.044964746E-3,1.145761907E-2,1.408802477E-2
8.679663042E0,3.296713860E-3,-1.488353927E-3,3.360570252E-2,3.379980416E-2
8.689625042E0,4.932391355E-3,-2.043024458E-2,1.129565120E-2,2.386032510E-2
8.699587042E0,6.452924382E-3,-1.751462186E-2,1.129331231E-2,2.181607469E-2
8.709549042E0,9.174509766E-4,-3.674392143E-2,4.405292273E-3,3.701842890E-2
8.719511042E0,3.065625502E-3,-3.921625212E-2,6.654131413E-4,3.934152087E-2
8.729473042E0,-8.906063181E-4,-4.391456299E-2,-9.361976981E-3,4.491022862E-2
8.739435042E0,7.238100377E-3,-3.742789948E-2,4.711686373E-3,3.841142727E-2
8.749397042E0,1.548234212E-3,-1.751697902E-2,-8.156865835E-3,1.938494373E-2
8.759359042E0,-5.463107260E-3,-2.188724281E-2,7.565712333E-3,2.379363238E-2
8.769321042E0,-7.100268257E-3,-1.130102333E-3,2.298540473E-2,2.408359963E-2
8.779283042E0,6.963411433E-3,1.466306269E-2,3.002252877E-2,3.412985116E-2
8.789245042E0,-2.759697352E-3,2.244130304E-2,3.810630441E-2,4.430934943E-2
8.799207042E0,-4.885943678E-3,2.316023648E-2,3.616093576E-2,4.321900362E-2
8.809168042E0,-5.642922845E-3,2.708806705E-2,4.154856026E-2,4.991882225E-2
8.819130042E0,7.313713327E-4,3.321565669E-2,3.630536199E-2,4.921274289E-2
8.829092042E0,-9.630946617E-4,1.575367805E-2,1.698966980E-2,2.318954082E-2
8.839054042E0,7.271229650E-3,9.655306209E-3,2.147448421E-2,2.464242664E-2
8.849016042E0,4.211627237E-3,-1.240039123E-2,2.117218316E-2,2.489515708E-2
8.858978042E0,1.344577403E-2,-1.646259813E-2,2.307311296E-3,2.138059077E-2
8.868940042E0,1.359841035E-2,-3.983675133E-2,-8.653879166E-5,4.209383577E-2
8.878902042E0,2.288468187E-2,-4.373956678E-2,3.955056667E-3,4.952273054E-2
8.888864042E0,1.208598348E-2,-4.037303237E-2,1.428591728E-2,4.449876596E-2
8.898826042E0,6.771224190E-3,-3.801236523E-2,7.075130939E-5,3.861080669E-2
8.908788042E0,6.169557120E-3,-3.968033832E-2,-1.085126281E-2,4.159738680E-2
8.918750042E0,4.232099344E-3,-2.873025756E-2,-1.117402911E-3,2.906177823E-2
8.928712042E0,6.435805288E-3,-8.219266590E-3,5.323889852E-3,1.171835040E-2
8.938673042E0,4.891448283E-3,-2.364522647E-3,3.182288647E-2,3.228332908E-2
8.948635042E0,-4.556193834E-3,2.240274796E-2,2.778362989E-2,3.598016271E-2
8.958597042E0,-1.017260664E-2,2.617613895E-2,4.290102124E-2,5.127543076E-2
8.968559042E0,-3.892710730E-3,1.703628307E-2,4.140471876E-2,4.494150502E-2
8.978521042E0,-2.097145007E-2,3.268604513E-2,4.559366405E-2,5.989124699E-2
8.988482833E0,-1.714361374E-3,1.628853383E-2,2.688023508E-2,3.147701394E-2
8.998444833E0,-1.087190736E-2,2.931114189E-2,2.118738592E-2,3.776568192E-2
9.008406833E0,-9.327833581E-3,1.229380745E-2,3.405476868E-2,3.738814586E-2
9.018368833E0,3.792217422E-3,-8.971821517E-6,1.010106504E-2,1.078946284E-2
9.028330833E0,2.219167947E-3,-2.807290262E-2,1.443969905E-2,3.164676092E-2
9.038292833E0,5.939434923E-3,-4.430749588E-2,-1.325505316E-2,4.662754028E-2
9.048254833E0,2.572192450E-3,-4.355092099E-2,-1.250719428E-2,4.538423517E-2
9.058216833E0,9.499618382E-3,-3.499224180E-2,-4.868976474E-3,3.658424070E-2
9.068178833E0,7.950998163E-3,-2.825613974E-2,-1.264869690E-2,3.196274922E-2
9.078139833E0,1.238221005E-3,-3.511614796E-2,1.190434635E-2,3.709973720E-2
9.088101833E0,1.350572056E-3,-3.002431948E-2,1.729781806E-2,3.467705747E-2
9.098063833E0,-9.724835542E-3,-1.720323935E-3,6.374634504E-3,1.175448450E-2
9.108025833E0,-4.018923794E-3,2.232649662E-2,1.326148510E-2,2.627719899E-2
9.117987833E0,-4.324403125E-3,2.408490054E-2,3.302156568E-2,4.109995981E-2
9.127949833E0,2.018665551E-3,2.974794718E-2,3.526806593E-2,4.618280899E-2
9.137911833E0,-1.995824637E-2,4.071664765E-2,3.361973584E-2,5.644876998E-2
9.147873833E0,1.745681665E-3,1.891919615E-2,5.217938304E-2,5.553081488E-2
9.157835833E0,-1.023226765E-2,2.971266288E-2,3.481081367E-2,4.689706158E-2
9.167797833E0,5.286340906E-3,1.855489634E-2,2.297838807E-2,3.000393135E-2
9.177759833E0,4.161394858E-3,9.978565872E-3,2.327016413E-2,2.565910214E-2
9.187721833E0,6.544979200E-3,-1.095380835E-2,6.799142361E-3,1.445859630E-2
9.197683833E0,1.580779563E-2,-2.476621080E-2,7.544662356E-3,3.033436220E-2
9.207645833E0,1.390717873E-2,-2.634523312E-2,-1.805444777E-2,3.483452329E-2
9.217606833E0,7.211530949E-3,-3.470693422E-2,-2.164288402E-2,4.153302169E-2
9.227568833E0,2.832025811E-3,-3.834150866E-2,-9.217550755E-3,3.953548910E-2
9.237530833E0,1.526116090E-2,-4.417989867E-2,5.157244205E-3,4.702513845E-2
9.247492833E0,3.335771434E-3,-2.413553378E-2,-4.867222309E-3,2.484635214E-2
9.257454833E0,1.004126812E-3,-1.895833595E-2,-6.357677579E-3,2.002115973E-2
9.267416833E0,2.839405637E-3,-4.472114984E-3,2.732813179E-2,2.783682497E-2
9.277378833E0,-2.808704328E-3,7.791652400E-3,1.595646679E-2,1.797797262E-2
9.287340833E0,-7.431127016E-3,2.588478316E-2,1.580736279E-2,3.122685329E-2
9.297302833E0,5.676320497E-3,3.070754835E-2,4.215140820E-2,5.245870141E-2
9.307264833E0,-9.899972213E-3,3.347856212E-2,5.142976999E-2,6.215983280E-2
9.317226833E0,-4.401774807E-3,3.903676087E-2,5.277229071E-2,6.578874514E-2
9.327188833E0,-4.304424376E-3,2.866084015E-2,2.851920962E-2,4.066100275E-2
9.337150833E0,-9.836135921E-4,1.059833419E-2,1.728670835E-2,2.030079971E-2
9.347111833E0,-1.806861585E-3,-3.940475173E-3,1.173945487E-2,1.251426761E-2
9.357073833E0,1.997022859E-3,-1.491542486E-2,-1.161490917E-2,1.900957954E-2
9.367035833E0,1.338958480E-2,-2.901832430E-2,1.173770070E-2,3.404581830E-2
9.376997833E0,8.813007942E-3,-4.211252421E-2,1.248380542E-2,4.479932145E-2
9.386959833E0,1.411413477E-2,-5.181088055E-2,-6.827208996E-3,5.413120104E-2
9.396921833E0,9.259181331E-3,-5.209721139E-2,-1.939696848E-2,5.635684750E-2
9.406883833E0,-2.203667115E-3,-3.780416781E-2,-9.814551473E-3,3.911951780E-2
9.416845833E0,6.314798759E-3,-2.581898371E-2,2.763978839E-3,2.672332655E-2
9.426807833E0,5.834712661E-3,-1.899424151E-2,4.117609262E-3,2.029235788E-2
9.436769833E0,2.980820319E-3,-9.974527638E-3,1.774220645E-2,2.057091105E-2
9.446731833E0,-1.041345939E-2,1.152928401E-2,2.912030339E-2,3.300540252E-2
9.456693833E0,-1.102495823E-2,2.171319678E-2,2.822217107E-2,3.727604537E-2
9.466655833E0,-1.135691334E-2,2.216569819E-2,3.555691838E-2,4.341188894E-2
9.476617833E0,-4.924254360E-3,3.189148162E-2,3.435473084E-2,4.713345322E-2
9.486578833E0,-1.225716757E-2,3.281172372E-2,3.390040219E-2,4.874509862E-2
9.496540833E0,6.946864498E-3,2.558361501E-2,5.649579763E-2,6.240637334E-2
9.506502833E0,-1.937341517E-2,4.676858895E-3,3.239006639E-2,3.803049598E-2
9.516464833E0,1.240280549E-2,-1.218254590E-2,3.118612468E-2,3.570459888E-2
9.526426833E0,6.666921055E-3,-2.043285755E-2,-3.396062851E-3,2.175965871E-2
9.536388833E0,9.897781791E-3,-2.467271017E-2,-7.286215425E-3,2.756442720E-2
9.546350833E0,2.300855148E-2,-4.409915227E-2,-7.586762309E-3,5.031587856E-2
9.556312833E0,9.791745048E-3,-4.430230647E-2,-2.345902920E-3,4.543210198E-2
9.566274833E0,-2.108328949E-3,-3.464473447E-2,-5.187649727E-3,3.509436404E-2
9.576236833E0,3.990431180E-3,-2.281879563E-2,-1.161958694E-2,2.591593671E-2
9.586198833E0,-6.603996106E-4,-1.747747377E-2,-7.272766829E-3,1.894178857E-2
9.596160833E0,3.967164515E-3,-1.240596436E-2,1.024607599E-2,1.657191658E-2
9.606122833E0,-5.899199912E-3,-2.696224228E-3,2.881273985E-2,2.953378002E-2
9.616083833E0,-1.424428100E-2,1.305915317E-2,3.435414612E-2,3.941634659E-2
9.626045833E0,-1.829649395E-2,2.189990569E-2,3.390975773E-2,4.431973860E-2
9.636007833E0,-1.553155580E-2,1.126086026E-2,4.393890202E-2,4.794437725E-2
9.645969833E0,-6.684629439E-3,3.167414792E-2,4.049430728E-2,5.184327188E-2
9.655931833E0,4.070672794E-3,2.024223832E-2,3.136037171E-2,3.754719035E-2
9.665893833E0,-2.088807928E-2,1.949410535E-2,4.123514950E-2,5.016641859E-2
9.675855833E0,-3.323311839E-3,1.349709135E-2,2.850751519E-2,3.171583672E-2
9.685817833E0,1.435998392E-2,-2.542533819E-3,8.595407009E-3,1.692792480E-2
9.695779833E0,5.339033226E-4,-2.832829803E-2,7.244700193E-3,2.924488337E-2
9.705741833E0,2.063799889E-3,-2.215785926E-2,-5.779387951E-3,2.299198387E-2
9.715703833E0,5.160795932E-3,-2.478424581E-2,1.188154221E-2,2.796540184E-2
9.725665833E0,1.441759384E-2,-4.527979648E-2,8.887767792E-3,4.834376276E-2
9.735627833E0,7.853188635E-3,-4.840259336E-2,3.348700404E-3,4.914974476E-2
9.745588833E0,-1.473219688E-3,-3.937940771E-2,-7.126586437E-3,4.004617787E-2
9.755550833E0,8.109003177E-4,-2.437344236E-2,2.163469791E-4,2.438788753E-2
9.765512833E0,-7.129892627E-3,-5.631800573E-3,2.192939758E-2,2.373712335E-2
9.775474833E0,-5.692899409E-3,-1.375354657E-2,2.672528386E-2,3.059101084E-2
9.785436833E0,-2.802643552E-4,2.603582405E-3,3.406295478E-2,3.416346115E-2
9.795398833E0,-1.930684370E-2,2.084802814E-2,3.840451241E-2,4.777343471E-2
9.805360833E0,-1.368077843E-2,2.060434543E-2,5.007906318E-2,5.585351661E-2
9.815322833E0,-3.366978663E-3,1.998507047E-2,4.274022281E-2,4.730186289E-2
9.825284833E0,-7.317563124E-3,3.216887718E-2,1.683764219E-2,3.703902785E-2
9.835246833E0,4.218478301E-3,1.795588564E-2,2.656273127E-2,3.233864686E-2
9.845208833E0,7.863085504E-3,1.584628332E-2,3.838404715E-2,4.226426250E-2
9.855170833E0,1.073366525E-2,4.015575349E-4,1.847135425E-2,2.136735234E-2
9.865132833E0,-1.678157744E-3,-1.876172332E-2,1.442566574E-2,2.372589950E-2
9.875094833E0,2.506208905E-2,-3.657860968E-2,1.023438156E-2,4.550654414E-2
9.885055833E0,5.212287975E-3,-2.758381957E-2,-1.206982255E-2,3.055676135E-2
9.895017833E0,1.455691289E-2,-3.529134516E-2,5.730271339E-5,3.817572579E-2
9.904979833E0,6.742711019E-3,-3.512077091E-2,-1.071619213E-2,3.733322214E-2
9.914941833E0,8.787586258E-3,-5.182688730E-2,-2.480973601E-3,5.262511900E-2
9.924903833E0,1.142714960E-3,-3.118575923E-2,-8.291351795E-4,3.121770077E-2
9.934865833E0,1.457211793E-3,-1.884243317E-2,1.069923520E-2,2.171714502E-2
9.944827833E0,3.201806241E-3,-2.410130929E-3,6.064147353E-3,7.268712226E-3
9.954789833E0,-8.483968443E-3,1.531440597E-2,2.582598209E-2,3.120080290E-2
9.964751833E0,-8.895421706E-3,3.233164905E-2,3.675501287E-2,4.975334188E-2
9.974713833E0,-1.609153291E-2,2.257761626E-2,5.247291327E-2,5.934722246E-2
9.984675833E0,-1.313624162E-2,3.110788163E-2,4.049313784E-2,5.272528194E-2
9.994637417E0,-1.544237091E-2,2.667684333E-2,4.318110287E-2,5.305401432E-2
1.000459942E1,-4.057768949E-3,1.631824499E-2,4.975922048E-2,5.252361975E-2
1.001456042E1,3.866834517E-3,-3.653413430E-3,2.505356491E-2,2.561212512E-2
1.002452242E1,7.689454034E-3,-1.519808292E-2,1.097873211E-2,2.026430326E-2
1.003448442E1,1.513895067E-2,-2.784498911E-2,-7.585008144E-3,3.258931719E-2
1.004444642E1,1.084761058E-2,-3.876954312E-2,1.546003819E-3,4.028819004E-2
1.005440842E1,-1.875454449E-3,-4.660377055E-2,-1.476831257E-2,4.892373468E-2
1.006437042E1,1.979544253E-2,-4.938017473E-2,-1.431690753E-2,5.509296726E-2
1.007433242E1,1.107160005E-2,-4.863052513E-2,3.650416732E-3,5.000833775E-2
1.008429442E1,5.456948269E-3,-4.731314745E-2,-1.146288157E-2,4.898683353E-2
1.009425642E1,-5.971829868E-3,-2.979903722E-2,-1.279955506E-3,3.041847559E-2
1.010421842E1,6.853122896E-3,-1.860673556E-2,1.653884947E-2,2.582071733E-2
1.011418042E1,6.546921800E-3,-1.205896866E-3,1.744516790E-2,1.867217864E-2
1.012414242E1,5.953320918E-3,7.789697237E-3,2.523307443E-2,2.707082300E-2
1.013410442E1,3.124225567E-3,2.781694075E-2,4.035221994E-2,4.911053484E-2
1.014406642E1,4.724221341E-3,2.638291111E-2,4.529019356E-2,5.262677929E-2
1.015402742E1,6.098675618E-3,1.722591558E-2,3.795135319E-2,4.212162415E-2
1.016398942E1,-1.164418180E-2,1.958756944E-2,4.049255311E-2,4.646403667E-2
1.017395142E1,5.192099093E-4,3.084731508E-2,4.078666806E-2,5.114077354E-2
1.018391342E1,7.158192237E-3,6.620857101E-3,2.581253350E-2,2.759279526E-2
1.019387542E1,6.918722489E-3,-1.119231993E-2,2.461034596E-2,2.790709363E-2
1.020383742E1,5.615188542E-3,-9.385658205E-3,5.671799183E-5,1.093728208E-2
1.021379942E1,2.314977773E-3,-2.974580929E-2,1.254227757E-3,2.986210608E-2
1.022376142E1,7.717006754E-3,-4.136987301E-2,-1.865612626E-2,4.603335348E-2
1.023372342E1,2.512324727E-3,-4.340342497E-2,-4.133396745E-3,4.367211975E-2
1.024368542E1,6.186954870E-3,-5.135667980E-2,-1.251070261E-2,5.321940107E-2
1.025364742E1,-1.907568454E-3,-5.571380563E-2,-1.279370785E-3,5.576113113E-2
1.026360942E1,4.565038889E-3,-3.914294265E-2,2.468694448E-3,3.948549090E-2
1.027357142E1,3.964062750E-3,-1.776024146E-2,6.066486239E-3,1.918182018E-2
1.028353242E1,-8.744955260E-3,2.285110150E-3,3.256665230E-2,3.379767467E-2
1.029349442E1,-2.802387737E-3,7.603682689E-3,4.319689035E-2,4.395043463E-2
1.030345642E1,-1.361997309E-2,2.919162115E-2,3.750754952E-2,4.944158861E-2
1.031341842E1,-1.675509938E-2,2.753409997E-2,4.962824285E-2,5.917619880E-2
1.032338042E1,-7.963602795E-3,3.791023996E-2,2.552251160E-2,4.638969564E-2
1.033334242E1,9.857035149E-4,3.014298141E-2,3.659421444E-2,4.742053848E-2
1.034330442E1,-1.179887719E-2,2.570185667E-2,4.107902884E-2,4.987269343E-2
1.035326642E1,2.769346400E-3,2.058170574E-2,2.670072556E-2,3.382609401E-2
1.036322842E1,2.581785538E-4,1.223544493E-2,7.235344648E-3,1.421699620E-2
1.037319042E1,1.454815006E-2,-7.227560543E-3,1.232066810E-2,2.038835854E-2
1.038315242E1,3.728023673E-3,-3.030370675E-2,-3.700118065E-3,3.075554709E-2
1.039311442E1,5.180144277E-3,-4.498818487E-2,-2.506701350E-3,4.535475966E-2
1.040307642E1,-2.552067521E-3,-5.439573359E-2,-2.451152802E-2,5.971786907E-2
1.041303842E1,1.575205636E-2,-4.856872737E-2,2.437704206E-3,5.111742325E-2
1.042299942E1,8.384651430E-3,-4.415961614E-2,3.642230630E-3,4.509589694E-2
1.043296142E1,4.413146042E-3,-4.080925293E-2,-2.937056422E-3,4.115212368E-2
1.044292342E1,6.575366448E-3,-2.854462674E-2,-2.034246325E-3,2.936271986E-2
1.045288542E1,9.666703711E-4,2.371411398E-4,1.548284233E-2,1.551480242E-2
1.046284742E1,-1.140276945E-2,1.291158406E-2,9.800518155E-3,1.981873634E-2
1.047280942E1,8.945280639E-4,2.230648817E-2,1.938644350E-2,2.956710650E-2
1.048277142E1,-1.873967521E-3,4.201800032E-2,4.273905337E-2,5.996374561E-2
1.049273342E1,-2.109743473E-2,4.929630373E-2,4.677830994E-2,7.115783579E-2
1.050269542E1,-5.779387951E-3,2.919710292E-2,6.204305112E-2,6.881287915E-2
1.051265742E1,-2.088937206E-3,3.175953554E-2,3.778880060E-2,4.940673240E-2
1.052261942E1,3.092326265E-3,2.388470650E-2,3.224388599E-2,4.024561927E-2
1.053258142E1,2.430810886E-3,-7.224783115E-4,3.223628461E-2,3.233587578E-2
1.054254342E1,1.088091459E-3,-1.739256123E-2,7.530629039E-3,1.898408552E-2
1.055250542E1,1.099137214E-3,-4.687983222E-2,-7.293232083E-3,4.745648540E-2
1.056246642E1,3.858608444E-3,-4.744936930E-2,-1.537700772E-2,5.002783098E-2
1.057242842E1,1.550784831E-2,-5.094819697E-2,-1.702182949E-2,5.591023889E-2
1.058239042E1,-6.131981907E-4,-4.325075783E-2,-5.044392943E-3,4.354824870E-2
1.059235242E1,-1.775713741E-3,-4.260217370E-2,-9.677141905E-3,4.372351129E-2
1.060231442E1,1.769868809E-3,-3.618121829E-2,-1.434906721E-3,3.625288885E-2
1.061227642E1,4.345290932E-3,-1.569478562E-2,4.113516212E-3,1.679669207E-2
1.062223842E1,4.248739926E-3,9.789079539E-3,1.025426209E-2,1.479958649E-2
1.063220042E1,-3.303733945E-4,1.686907098E-2,3.405769229E-2,3.800790847E-2
1.064216242E1,2.611498986E-3,1.943714982E-2,5.082633734E-2,5.447879668E-2
1.065212442E1,1.111311300E-3,4.141288659E-2,4.513933539E-2,6.126844039E-2
1.066208642E1,-9.792521631E-4,5.101715757E-2,5.067723334E-2,7.191586250E-2
1.067204842E1,3.272138424E-3,3.293743886E-2,4.677947938E-2,5.730533535E-2
1.068201042E1,-9.962410654E-4,1.824380619E-2,3.569842100E-2,4.010244659E-2
1.069197142E1,5.702353169E-3,1.269260583E-2,2.880864680E-2,3.199308058E-2
1.070193342E1,1.183932120E-3,-1.337112039E-2,9.045642614E-3,1.618679110E-2
1.071189542E1,-7.022871450E-3,-2.178126203E-2,1.203590870E-2,2.585743988E-2
1.072185742E1,2.875682357E-3,-3.924435530E-2,-9.974765182E-3,4.059414874E-2
1.073181942E1,-2.045851678E-4,-4.180806700E-2,-1.312173665E-2,4.381935981E-2
1.074178142E1,2.127736680E-3,-4.134147746E-2,-4.290686846E-3,4.161796506E-2
1.075174342E1,7.985229499E-4,-5.979401099E-2,-2.075527668E-2,6.329883805E-2
1.076170542E1,-1.251232201E-3,-5.571426244E-2,-2.060207963E-2,5.941456309E-2
1.077166742E1,2.674980105E-3,-3.389879420E-2,-1.595646679E-2,3.756185032E-2
1.078162942E1,-1.186733530E-4,-3.039600139E-2,2.371864557E-2,3.855522185E-2
1.079159142E1,6.846125652E-3,-1.216080157E-2,2.043075621E-2,2.474207612E-2
1.080155342E1,-6.333681154E-3,1.996222978E-2,3.914827824E-2,4.439812861E-2
1.081151542E1,-1.019026820E-2,2.486923143E-2,3.077097237E-2,4.085551344E-2
1.082147742E1,-6.468446912E-3,3.831634736E-2,4.903416574E-2,6.256462811E-2
1.083143842E1,-9.498306185E-3,3.439812815E-2,4.319221258E-2,5.602692449E-2
1.084140042E1,-1.426622290E-2,3.065954637E-2,4.109189272E-2,5.321725798E-2
1.085136242E1,-3.182793654E-3,3.044272430E-2,2.536756039E-2,3.975427975E-2
1.086132442E1,3.252044331E-3,1.892761979E-3,3.344490409E-2,3.365590512E-2
1.087128642E1,4.685253989E-3,-5.563260242E-3,1.412979662E-2,1.589190429E-2
1.088124842E1,8.738684349E-3,-3.279114883E-2,-8.437532187E-4,3.394607438E-2
1.089121042E1,2.147594144E-2,-4.153582430E-2,-3.976106644E-4,4.676108270E-2
1.090117242E1,2.392636106E-3,-3.694382312E-2,-2.973484576E-2,4.748401654E-2
1.091113442E1,5.737370225E-3,-4.621005194E-2,-2.404258132E-2,5.240545806E-2
1.092109642E1,-2.044641122E-4,-5.608179649E-2,-2.782689929E-3,5.615116265E-2
1.093105842E1,-2.380367231E-3,-4.075416120E-2,1.024724543E-2,4.209006821E-2
1.094102042E1,5.912323028E-3,-2.299249448E-2,1.608685970E-2,2.867747236E-2
1.095098242E1,3.669552659E-3,-7.740251720E-3,1.743932068E-2,1.942953986E-2
1.096094442E1,4.754914655E-3,1.994540077E-3,2.163469791E-2,2.224067349E-2
1.097090542E1,-2.994291756E-3,1.145553600E-2,4.019960761E-2,4.190708222E-2
1.098086742E1,-8.645690780E-3,4.199592708E-2,4.454525828E-2,6.182787313E-2
1.099082954E1,-1.255678255E-2,2.405268604E-2,4.214965403E-2,5.012781492E-2
1.100079154E1,-1.181076920E-2,4.175578924E-2,4.424412668E-2,6.197243701E-2
1.101075354E1,-8.218703567E-3,4.035508873E-2,3.315955997E-2,5.287378076E-2
1.102071554E1,-8.296423570E-3,3.132645786E-2,3.240351498E-2,4.582756146E-2
1.103067754E1,4.980950654E-3,4.054934420E-3,2.640778005E-2,2.717762333E-2
1.104063954E1,5.358701341E-3,-5.588549450E-3,1.068344772E-2,1.319407519E-2
1.105060154E1,8.851999277E-4,-2.182078555E-2,7.969754934E-4,2.185327049E-2
1.106056354E1,1.194037867E-2,-3.212447489E-2,1.875845253E-2,3.906960546E-2
1.107052554E1,1.121333793E-3,-5.598133402E-2,-2.734859705E-2,6.231462837E-2
1.108048754E1,2.005580351E-2,-5.874184107E-2,4.687128067E-3,6.224795833E-2
1.109044954E1,1.103316032E-2,-4.346144032E-2,-2.000741780E-2,4.910116280E-2
1.110041054E1,4.116374723E-3,-2.603693867E-2,-5.031529069E-3,2.683622554E-2
1.111037254E1,-1.161460311E-4,-1.912361115E-2,-6.220852733E-3,2.011032079E-2
1.112033454E1,-1.571070330E-3,-1.060862163E-2,1.938059628E-2,2.214991257E-2
1.113029654E1,-2.277639646E-2,1.356731275E-2,2.672236025E-2,3.764200777E-2
1.114025854E1,-1.838877717E-2,2.374746138E-2,3.600715399E-2,4.688927581E-2
1.115022054E1,-7.714594777E-3,2.799363630E-2,3.944824040E-2,4.898287779E-2
1.116018254E1,-1.255360199E-2,3.379871545E-2,3.645095766E-2,5.127005367E-2
1.117014454E1,-1.202898340E-2,4.133391263E-2,4.228297055E-2,6.034101734E-2
1.118010654E1,1.840037681E-3,1.754418684E-2,3.808700860E-2,4.197385441E-2
1.119006854E1,2.671428379E-3,9.420540500E-3,1.861987352E-2,2.103765203E-2
1.120003054E1,1.693339949E-3,-8.656199779E-3,2.400282025E-2,2.557210541E-2
1.120999254E1,9.429755575E-3,-6.173234470E-3,5.888146162E-3,1.271610708E-2
1.121995454E1,2.533760711E-3,-3.159822548E-2,4.987674952E-4,3.170357339E-2
1.122991654E1,1.792836147E-2,-3.820985494E-2,-2.045356035E-3,4.225639172E-2
1.123987754E1,7.889500757E-3,-5.091278477E-2,3.492541909E-3,5.163868437E-2
1.124983954E1,1.795154591E-3,-4.882171081E-2,-2.269830644E-2,5.387016932E-2
1.125980154E1,1.077846497E-2,-3.989747101E-2,-7.423624992E-3,4.198920943E-2
1.126976354E1,1.021186521E-3,-3.085445965E-2,-2.327191830E-3,3.095894578E-2
1.127972554E1,-1.457683111E-2,-2.110848505E-2,1.998052061E-2,3.251574003E-2
1.128968754E1,-7.370136674E-3,-1.167650593E-2,2.133181214E-2,2.541074408E-2
1.129964954E1,-1.783950778E-2,9.670856148E-3,3.540430605E-2,4.080733247E-2
1.130961154E1,-1.206100376E-2,2.366284121E-2,3.525695622E-2,4.414125992E-2
1.131957354E1,-2.917109651E-4,3.336238526E-2,4.768228948E-2,5.819565770E-2
1.132953554E1,-1.714577904E-2,3.732100507E-2,5.261967838E-2,6.675077311E-2
1.133949754E1,-1.596038397E-2,1.574410323E-2,3.809636414E-2,4.420343430E-2
1.134945954E1,-9.745008436E-3,2.310850689E-2,3.584518611E-2,4.374752162E-2
1.135942154E1,3.810164491E-3,9.215339776E-3,3.119957328E-2,3.275443807E-2
1.136938354E1,1.559002453E-4,-1.764797492E-2,-1.588688493E-3,1.772002412E-2
1.137934454E1,-1.721959328E-5,-1.517240999E-2,1.726916671E-2,2.298752793E-2
1.138930654E1,1.925706471E-2,-3.527981518E-2,-1.282118976E-2,4.218865733E-2
1.139926854E1,1.253988615E-2,-4.309271855E-2,-1.012562335E-2,4.600825345E-2
1.140923054E1,2.361983220E-2,-4.012973338E-2,-1.252005816E-2,4.821870831E-2
1.141919254E1,6.584299441E-3,-3.888707215E-2,-7.427133322E-3,4.013377242E-2
1.142915454E1,-1.457633204E-3,-3.937472994E-2,3.056339622E-3,3.952006154E-2
1.143911654E1,5.080451535E-3,-1.544313608E-2,1.818016291E-2,2.438892706E-2
1.144907854E1,5.540363597E-3,-1.005556639E-3,5.313949585E-3,7.742404867E-3
1.145904054E1,-1.063302919E-2,2.999365814E-3,2.971905828E-2,3.170614972E-2
1.146900254E1,-4.521135665E-3,2.083081540E-2,3.960260689E-2,4.497477082E-2
1.147896454E1,-1.722888259E-2,1.905885324E-2,2.568506420E-2,3.632900776E-2
1.148892654E1,-5.695738506E-3,2.217969496E-2,4.140296459E-2,4.731369551E-2
1.149888854E1,-4.479293812E-3,2.544245956E-2,4.379447579E-2,5.084622829E-2
1.150885054E1,-1.004378974E-2,2.924435573E-2,3.436233222E-2,4.622639863E-2
1.151881154E1,-8.280428237E-3,1.261229798E-2,4.214205265E-2,4.476145835E-2
1.152877354E1,-2.075884896E-3,2.841618899E-3,2.357772768E-2,2.383890388E-2
1.153873554E1,6.259352993E-4,-2.117843237E-2,9.054998159E-3,2.304150134E-2
1.154869754E1,1.550802418E-2,-1.796056341E-2,1.713585019E-2,2.926974571E-2
1.155865954E1,7.622987637E-3,-3.283823719E-2,-6.217929125E-3,3.428005842E-2
1.156862154E1,2.231226687E-3,-4.025999838E-2,-1.998695254E-2,4.500360113E-2
1.157858354E1,2.423806562E-2,-4.727605417E-2,3.218892217E-3,5.322471597E-2
1.158854554E1,-1.530145530E-3,-3.784074945E-2,-3.662695885E-3,3.804837718E-2
1.159850754E1,7.047746099E-3,-3.829474920E-2,-5.603971481E-3,3.933907775E-2
1.160846954E1,-1.092790130E-2,-2.341144748E-2,1.086471140E-2,2.802778717E-2
1.161843154E1,-3.077005874E-4,-3.158501443E-3,1.610206246E-2,1.641180144E-2
1.162839354E1,-6.565385069E-3,1.076243995E-2,4.154914498E-2,4.341964813E-2
1.163835554E1,-1.155269914E-2,6.677502003E-3,2.643233836E-2,2.960949850E-2
1.164831754E1,-1.716011842E-2,1.757250929E-2,2.313977122E-2,3.374480344E-2
1.165827854E1,-7.676100227E-3,3.202055890E-2,4.169883370E-2,5.313220718E-2
1.166824054E1,-2.559890456E-3,3.254518205E-2,3.436174750E-2,4.739695777E-2
1.167820254E1,2.403687572E-3,7.787065990E-3,3.240877748E-2,3.341773434E-2
1.168816454E1,-6.619054971E-3,8.299793713E-3,1.518814266E-2,1.853046523E-2
1.169812654E1,1.442961489E-2,-5.765482541E-3,2.446416557E-2,2.898189041E-2
1.170808854E1,1.668791807E-2,-1.407823149E-2,2.161306322E-2,3.072145363E-2
1.171805054E1,1.477255637E-2,-2.540242441E-2,4.995861053E-3,2.980721750E-2
1.172801254E1,1.569823799E-2,-3.407459440E-2,-2.189197540E-3,3.758064988E-2
1.173797454E1,1.012610300E-2,-3.589614825E-2,2.002671361E-3,3.735079804E-2
1.174793654E1,-1.380261522E-3,-3.819571199E-2,-3.084990978E-3,3.834494368E-2
1.175789854E1,-1.746695791E-3,-2.631334752E-2,-1.734868884E-3,2.642826089E-2
1.176786054E1,4.554379141E-3,-1.971295567E-2,2.151775360E-4,2.023337075E-2
1.177782254E1,-8.996866329E-4,-3.307265572E-2,6.507366300E-3,3.371877531E-2
1.178778454E1,4.842295126E-3,-1.151161445E-2,2.103184998E-2,2.446024945E-2
1.179774554E1,6.230065523E-3,6.843964923E-3,3.360745668E-2,3.485849562E-2
1.180770754E1,-8.575146178E-3,1.994052200E-2,4.962648869E-2,5.416591113E-2
1.181766954E1,-8.165354576E-3,2.887747949E-2,4.004758000E-2,5.004388575E-2
1.182763154E1,-1.590462415E-2,3.636758002E-2,2.926999211E-2,4.931825609E-2
1.183759354E1,-6.507802557E-4,3.090819921E-2,2.642356753E-2,4.066872527E-2
1.184755554E1,-7.145865118E-3,1.647569954E-2,3.106157899E-2,3.587943357E-2
1.185751754E1,2.038751651E-3,2.820422743E-3,3.030962706E-2,3.050876571E-2
1.186747954E1,6.590684555E-3,-1.656941945E-2,2.162534237E-2,2.802923860E-2
1.187744154E1,8.905133565E-3,-2.967401644E-2,-2.775673270E-3,3.110551427E-2
1.188740354E1,8.871681096E-3,-4.228039412E-2,8.746849895E-3,4.407772493E-2
1.189736554E1,1.783649281E-2,-4.764956335E-2,-1.011919141E-2,5.187503636E-2
1.190732754E1,7.848319000E-3,-4.484598789E-2,-5.327982903E-3,4.583826069E-2
1.191728954E1,1.816072091E-3,-2.560051711E-2,-1.730132639E-2,3.095190607E-2
1.192725054E1,1.656780804E-2,-2.215630610E-2,1.218735158E-2,3.023120410E-2
1.193721254E1,5.514404015E-3,-1.847329114E-2,-2.208493352E-2,2.931578799E-2
1.194717454E1,6.930302717E-3,-7.116499990E-3,1.504313171E-2,1.802690987E-2
1.195713654E1,-9.866405540E-3,1.052602971E-2,6.810836792E-3,1.595402011E-2
1.196709854E1,-4.332658891E-3,1.434937784E-2,4.169006288E-2,4.430279811E-2
1.197706054E1,-7.629888951E-3,1.668771593E-2,3.660240054E-2,4.094424006E-2
1.198702304E1,-1.049197996E-2,3.228847101E-2,3.705088198E-2,5.025330695E-2
1.199698504E1,-1.471171335E-2,1.998523492E-2,3.165799499E-2,4.022527528E-2
1.200694704E1,4.797948792E-4,3.036574205E-2,2.461677790E-2,3.909340414E-2
1.201690904E1,-9.616722580E-3,3.338486049E-3,1.473556817E-2,1.790988027E-2
1.202687104E1,-1.158107298E-3,-7.840458378E-3,1.398537040E-2,1.607496766E-2
1.203683304E1,1.120021596E-2,-1.758296119E-2,1.532847583E-2,2.587600304E-2
1.204679504E1,1.763403639E-2,-2.424326872E-2,1.263173997E-2,3.253084955E-2
1.205675604E1,3.245204687E-3,-3.102525316E-2,7.988466024E-3,3.220113782E-2
1.206671804E1,5.485115403E-3,-3.801950980E-2,-9.226906300E-3,3.950576434E-2
1.207668004E1,1.491770551E-2,-3.438272439E-2,-8.774916530E-3,3.849297123E-2
1.208664204E1,3.078391162E-3,-2.468738303E-2,-1.289311051E-3,2.491195889E-2
1.209660404E1,5.224323875E-3,-3.645106729E-2,-5.379438400E-4,3.682747955E-2
1.210656604E1,1.684820373E-3,-2.213849036E-2,6.798557639E-3,2.322007237E-2
1.211652804E1,-1.049693068E-2,-5.341248773E-3,-1.132020950E-3,1.183198899E-2
1.212649004E1,4.864468864E-3,1.247216580E-2,2.207440853E-2,2.581661266E-2
1.213645204E1,-9.950768757E-3,2.179396145E-2,3.061017394E-2,3.887129150E-2
1.214641404E1,-1.806340703E-2,2.402195161E-2,3.495173156E-2,4.609733584E-2
1.215637604E1,-1.052043374E-2,3.766060039E-2,4.916689754E-2,6.282025280E-2
1.216633804E1,-4.202245425E-3,3.176892763E-2,3.060257256E-2,4.431073320E-2
1.217630004E1,-7.774970705E-3,1.074692655E-2,3.583466113E-2,3.821085628E-2
1.218626204E1,-1.055584594E-3,6.478130221E-3,2.819351971E-2,2.894745211E-2
1.219622304E1,7.139838603E-3,-4.080589078E-3,1.576292396E-2,1.777915280E-2
1.220618504E1,9.244523321E-3,-4.776718374E-3,4.882425070E-4,1.041713159E-2
1.221614704E1,7.373590185E-4,-4.182189932E-2,-2.956936955E-3,4.193278475E-2
1.222610904E1,1.547433531E-2,-3.562697534E-2,-1.029343843E-2,4.018322162E-2
1.223607104E1,9.401485658E-3,-3.589371800E-2,9.314614534E-3,3.825583575E-2
1.224603304E1,3.832644294E-4,-2.954667505E-2,-7.297909856E-3,3.043702328E-2
1.225599504E1,1.940907862E-3,-3.655942351E-2,7.887893915E-4,3.661940413E-2
1.226595704E1,-9.955499063E-3,-2.801238393E-2,9.176035523E-3,3.111278263E-2
1.227591904E1,1.589620393E-3,-6.779919639E-3,2.295616865E-3,7.332397977E-3
1.228588104E1,1.836795446E-3,5.155088045E-3,1.667158127E-2,1.754680519E-2
1.229584304E1,-1.698327098E-2,5.723181590E-3,3.313792527E-2,3.767370956E-2
1.230580504E1,-2.504301936E-3,1.105220603E-2,3.523532152E-2,3.701284465E-2
1.231576704E1,-2.402178944E-2,9.416959081E-3,4.436633348E-2,5.132345500E-2
1.232572904E1,-2.241673560E-2,1.982803619E-2,3.448395431E-2,4.565965570E-2
1.233569004E1,-4.900973991E-3,2.938171048E-3,4.196312785E-2,4.235040135E-2
1.234565204E1,7.086779689E-4,1.523294695E-2,1.067350745E-2,1.861366859E-2
1.235561404E1,5.872705858E-4,-2.335633747E-3,2.294505894E-2,2.307110317E-2
1.236557604E1,2.245823027E-3,-3.944677860E-4,5.726178288E-3,6.163476592E-3
1.237553804E1,1.109538863E-2,-1.674240567E-2,1.650025785E-2,2.599373589E-2
1.238550004E1,1.469731915E-2,-2.928303871E-2,3.925235868E-3,3.299871245E-2
1.239546204E1,1.251673255E-2,-3.003859034E-2,-1.927651584E-2,3.782287094E-2
1.240542404E1,1.098997658E-2,-4.253169648E-2,-1.012153029E-3,4.394029181E-2
1.241538604E1,1.535122516E-2,-4.432766877E-2,-1.328195035E-2,4.875461555E-2
1.242534804E1,1.924296973E-3,-3.036660086E-2,4.683619738E-3,3.078586787E-2
1.243531004E1,-5.894389664E-3,-2.108791016E-2,4.970133305E-4,2.190184482E-2
1.244527204E1,-4.759651814E-3,-1.149241000E-2,2.340348065E-2,2.650382387E-2
1.245523404E1,-1.866034950E-2,2.030080184E-3,1.786850631E-2,2.591550476E-2
1.246519604E1,-1.637914283E-2,7.092160955E-3,1.547407150E-2,2.362248835E-2
1.247515704E1,-1.946685413E-2,2.209008638E-2,1.682010055E-2,3.390938083E-2
1.248511904E1,-1.791971627E-2,2.548998646E-2,2.759885788E-2,4.162394260E-2
1.249508104E1,-7.086977261E-3,1.775554541E-2,3.687838912E-2,4.153914086E-2
1.250504304E1,1.143473270E-3,2.338332603E-2,3.657608807E-2,4.342692351E-2
1.251500504E1,3.215797304E-4,9.148389157E-3,2.504654825E-2,2.666694615E-2
1.252496704E1,4.692502480E-3,2.486877462E-2,2.085058630E-2,3.279058523E-2
1.253492904E1,1.535053651E-2,-6.253140327E-3,3.042540193E-2,3.464745037E-2
1.254489104E1,1.337772935E-2,4.459580015E-3,1.832517385E-3,1.422004277E-2
1.255485304E1,1.351743212E-2,-2.674161952E-2,-8.642184734E-4,2.997635834E-2
1.256481504E1,1.529393044E-2,-4.002720611E-2,4.822783470E-3,4.312007395E-2
1.257477704E1,1.845715191E-2,-4.999683671E-2,-1.762818575E-2,5.613468687E-2
1.258473904E1,1.057242942E-2,-3.843192123E-2,-6.697400808E-3,4.041836230E-2
1.259470104E1,-1.860220854E-3,-2.104953781E-2,-2.052957416E-3,2.123106445E-2
1.260466304E1,4.752930942E-3,-2.516511882E-2,2.429927409E-2,3.530337489E-2
1.261462504E1,-1.169512109E-2,-1.514838159E-2,8.287258744E-3,2.085492699E-2
1.262458604E1,-1.871973072E-2,1.025272720E-4,2.430453658E-2,3.067815719E-2
1.263454804E1,-1.825245825E-2,7.454432510E-3,2.669897139E-2,3.318969523E-2
1.264451004E1,-1.966960177E-2,9.807607904E-3,3.164045334E-2,3.852532536E-2
1.265447204E1,-1.293605900E-2,1.878509391E-2,1.547407150E-2,2.756208019E-2
1.266443404E1,5.021039484E-3,1.674640736E-2,1.592138350E-2,2.364621427E-2
1.267439604E1,2.678321698E-4,1.479831610E-2,2.550146163E-2,2.948535973E-2
1.268435804E1,-1.578517535E-3,1.286537278E-2,2.849055827E-2,3.130050231E-2
1.269432004E1,1.196866229E-2,5.340115875E-3,2.803798378E-2,3.094986670E-2
1.270428204E1,1.508588605E-2,-5.846612658E-3,2.459397376E-2,2.943858663E-2
1.271424404E1,8.678064026E-3,-2.149608236E-2,9.174281359E-3,2.493106076E-2
1.272420604E1,1.486725043E-2,-3.658513298E-2,1.216688633E-2,4.132239361E-2
1.273416804E1,7.559045136E-3,-3.841341114E-2,1.216805577E-2,4.099744992E-2
1.274413004E1,1.082873618E-2,-1.892666962E-2,-1.132956505E-2,2.457314376E-2
1.275409204E1,4.139861801E-3,-2.515373502E-2,-1.207566977E-2,2.820763445E-2
1.276405304E1,5.476266921E-3,-3.096361985E-2,1.741710126E-2,3.594566275E-2
1.277401504E1,-3.104185149E-3,-2.217494410E-2,1.023788989E-2,2.462069252E-2
1.278397704E1,-2.056610783E-2,-1.310390264E-2,3.448921680E-2,4.223959199E-2
1.279393904E1,-7.251456468E-3,1.942530921E-2,6.949415803E-3,2.186825642E-2
1.280390104E1,-1.144744811E-2,7.776522730E-3,4.212977350E-2,4.434451701E-2
1.281386304E1,-4.113519638E-3,1.764949154E-2,1.728144586E-2,2.504144498E-2
1.282382504E1,4.210019252E-3,2.321295278E-2,3.674039483E-2,4.366259327E-2
1.283378704E1,4.670060364E-3,2.385671295E-2,3.105105400E-2,3.943501200E-2
1.284374904E1,-1.449614981E-3,2.937043631E-2,5.185369313E-2,5.961148718E-2
1.285371104E1,4.984516085E-3,1.032936227E-2,2.625341356E-2,2.864930800E-2
1.286367304E1,-1.124627420E-3,-1.017024491E-2,1.203298509E-2,1.579529672E-2
1.287363504E1,1.910915871E-2,-1.762833193E-2,-3.535811305E-3,2.623775895E-2
1.288359704E1,1.307665370E-2,-1.612912411E-2,7.241776586E-3,2.199069905E-2
1.289355904E1,1.266162930E-2,-2.938244138E-2,7.992559075E-3,3.297765483E-2
1.290352004E1,3.792010713E-3,-3.032996440E-2,-8.373212814E-4,3.057756028E-2
1.291348204E1,6.436528196E-4,-3.082063716E-2,-9.218720198E-3,3.217624537E-2
1.292344404E1,5.828704418E-3,-2.842567245E-2,-1.236218333E-2,3.154070744E-2
1.293340604E1,1.387916578E-3,-2.178239493E-2,9.644982219E-3,2.386262188E-2
1.294336804E1,-9.742710663E-3,-1.261312025E-2,1.129506648E-2,1.953432211E-2
1.295333004E1,3.406823098E-3,1.808909252E-3,2.806312680E-2,2.832697799E-2
1.296329204E1,-1.881508944E-2,1.251910798E-2,1.788604796E-2,2.882093626E-2
1.297325404E1,-4.590599901E-3,1.458465518E-2,3.046106994E-2,3.408317116E-2
1.298321604E1,-5.909927040E-3,2.019471142E-2,3.509908140E-2,4.092308789E-2
1.299317804E1,-6.451282137E-3,5.019213371E-3,4.258059382E-2,4.335802711E-2
1.300314004E1,-5.243512335E-3,6.236347854E-3,4.063405573E-2,4.144288771E-2
1.301310204E1,4.796200338E-3,1.178221263E-2,1.952326834E-2,2.330197586E-2
1.302306404E1,5.103741040E-3,4.464988690E-3,1.697329760E-2,1.827777689E-2
1.303302604E1,3.152368718E-4,2.220955230E-3,1.038231611E-2,1.062188798E-2
1.304298704E1,8.927350701E-4,-2.228733854E-2,-1.341935992E-2,2.603078285E-2
1.305294904E1,1.083360924E-2,-2.525894836E-2,-7.133018374E-3,2.839474445E-2
1.306291104E1,1.093758347E-2,-3.954775270E-2,2.445364058E-2,4.776647374E-2
1.307287304E1,1.472081537E-2,-4.968708046E-2,1.232768476E-2,5.326800335E-2
1.308283504E1,1.224383203E-2,-3.383102132E-2,3.046984076E-3,3.610725050E-2
1.309279704E1,7.210101122E-3,-1.730611380E-2,1.852397919E-3,1.883928107E-2
1.310275904E1,-1.704939591E-3,-2.055802451E-2,7.393804193E-3,2.191363802E-2
1.311272104E1,-1.012980890E-2,-9.001678862E-3,2.386365652E-2,2.744298368E-2
1.312268304E1,-4.109673266E-3,1.283111176E-2,1.788137019E-2,2.238906525E-2
1.313264504E1,-1.684797646E-2,2.268231796E-2,2.342043757E-2,3.669957432E-2
1.314260704E1,-1.083553700E-2,1.891387884E-2,3.374954402E-2,4.017680172E-2
1.315256904E1,-4.942435547E-3,2.660824819E-2,3.868810236E-2,4.721436016E-2
1.316253104E1,-6.726043029E-3,2.788911732E-2,2.760821342E-2,3.981527305E-2
1.317249304E1,-1.023157558E-2,1.953019364E-2,2.251353443E-2,3.151147148E-2
1.318245404E1,-1.273236918E-3,1.004949991E-2,3.313383222E-2,3.464771880E-2
1.319241604E1,5.590510323E-3,-9.198254943E-3,2.294856727E-2,2.534755293E-2
1.320237804E1,2.256330885E-3,-2.045067329E-2,-2.951089740E-3,2.078533131E-2
1.321234004E1,1.169708082E-3,-1.599821957E-2,1.081676424E-2,1.934718674E-2
1.322230204E1,6.963646692E-3,-3.202912873E-2,5.428555012E-3,3.322388707E-2
1.323226404E1,5.238659831E-4,-4.059270496E-2,-9.090081453E-3,4.160134267E-2
1.324222604E1,1.193503623E-2,-3.204798600E-2,2.889109254E-3,3.432004442E-2
1.325218804E1,4.237908872E-3,-3.161306279E-2,-1.027882040E-2,3.351118857E-2
1.326215004E1,7.089325284E-3,-2.140601696E-2,-1.192130327E-2,2.550673572E-2
1.327211204E1,6.912823882E-3,-2.037460467E-2,9.189484119E-3,2.339568909E-2
1.328207404E1,-1.055744022E-2,2.479456980E-3,1.383158863E-2,1.757612286E-2
1.329203604E1,-9.429858358E-3,1.103444511E-2,1.982264578E-2,2.456864859E-2
1.330199804E1,-1.938402467E-2,1.425907491E-2,3.853607476E-2,4.543226483E-2
1.331196004E1,-1.350546017E-2,2.814400110E-2,2.237086236E-2,3.840491812E-2
1.332192104E1,-2.828578010E-3,3.149608193E-2,3.179891288E-2,4.484612459E-2
1.333188304E1,-1.006542558E-2,1.693498006E-2,2.685626149E-2,3.330713321E-2
1.334184504E1,-2.429466712E-3,1.303497858E-2,3.897637010E-2,4.117001823E-2
1.335180704E1,2.981840156E-3,-5.510050580E-3,2.115873456E-2,2.206680938E-2
1.336176904E1,1.364672982E-2,-5.168116372E-3,1.756035805E-2,2.283218860E-2
1.337173104E1,6.318213441E-3,-1.939104818E-2,-2.801985741E-3,2.058600725E-2
1.338169304E1,1.083476155E-2,-2.482031582E-2,3.379690647E-4,2.708420865E-2
1.339165504E1,1.591895325E-2,-3.690609030E-2,-6.997947693E-3,4.079759608E-2
1.340161704E1,2.384982420E-2,-2.319709221E-2,2.883846760E-3,3.339514596E-2
1.341157904E1,1.555584459E-2,-3.045896860E-2,7.975017428E-3,3.511885493E-2
1.342154104E1,3.387834494E-3,-1.741242349E-2,-1.312699914E-2,2.206780507E-2
1.343150304E1,-1.866141160E-3,-2.185521103E-2,3.491372466E-3,2.221086252E-2
1.344146504E1,5.531922821E-4,-1.224101806E-2,9.332740903E-3,1.540287628E-2
1.345142704E1,2.624422247E-3,1.331067480E-2,2.340465009E-2,2.705252856E-2
1.346138804E1,1.801110300E-3,1.486552253E-2,2.176099777E-2,2.641531341E-2
1.347135004E1,-1.289400929E-2,1.726640755E-2,3.328702927E-2,3.965363316E-2
1.348131204E1,-2.521151739E-2,1.756565709E-2,5.035154343E-2,5.898687009E-2
1.349127404E1,-1.745015859E-3,1.923569497E-2,2.310761154E-2,3.011675202E-2
1.350123604E1,-6.449495995E-3,2.015491381E-2,1.637103438E-2,2.675494938E-2
1.351119804E1,-3.107703757E-5,1.109808840E-2,3.807356000E-2,3.965809505E-2
1.352116004E1,-1.734792368E-3,1.066787951E-2,2.055471718E-2,2.322303934E-2
1.353112204E1,1.545178470E-2,-2.230160940E-2,1.845615149E-2,3.281385318E-2
1.354108404E1,1.546000050E-2,-2.035331715E-2,2.294213533E-2,3.434546124E-2
1.355104604E1,5.296229781E-4,-2.612088276E-2,-2.207908630E-3,2.621937980E-2
1.356100804E1,4.757790298E-3,-2.900986411E-2,-1.178681731E-2,3.167235145E-2
1.357097004E1,1.691851307E-2,-2.934282649E-2,1.237270832E-3,3.389348595E-2
1.358093204E1,2.141783017E-2,-2.881628472E-2,-1.103486538E-2,3.756154907E-2
1.359089404E1,9.208215766E-3,-3.984135602E-2,1.840703487E-3,4.093303160E-2
1.360085504E1,-1.517409564E-4,-2.695120566E-2,7.083901763E-3,2.786704462E-2
1.361081704E1,-7.270919017E-3,-1.002406452E-2,1.951215863E-2,2.311000795E-2
1.362077904E1,-2.297641692E-3,-8.739394695E-4,1.053492844E-2,1.081793163E-2
1.363074104E1,-7.846649346E-3,2.212474940E-2,1.861928880E-2,2.996251588E-2
1.364070304E1,-1.622749438E-2,2.168547733E-2,3.837819993E-2,4.697315969E-2
1.365066504E1,-1.739025889E-2,3.383266585E-2,4.286769211E-2,5.731238444E-2
1.366062704E1,-2.176187485E-3,2.244833797E-2,3.313850999E-2,4.008521565E-2
1.367058904E1,-3.688345975E-3,8.326033093E-3,4.062002242E-2,4.162827097E-2
1.368055104E1,6.079476880E-3,7.422382459E-3,2.070674479E-2,2.282150478E-2
1.369051304E1,6.513047920E-3,-3.772184998E-4,1.621199012E-2,1.747543163E-2
1.370047504E1,2.816434759E-3,-9.854988623E-3,1.022151768E-2,1.447523849E-2
1.371043704E1,1.690759408E-2,-1.697044708E-2,1.066824496E-2,2.622354404E-2
1.372039904E1,1.872492812E-2,-4.094200300E-2,-2.136923432E-2,4.983487452E-2
1.373036104E1,1.011684567E-2,-3.461542530E-2,-1.164063692E-2,3.789568132E-2
1.374032204E1,7.133866906E-3,-2.972030081E-2,2.580960989E-3,3.067327333E-2
1.375028404E1,2.303338159E-3,-2.375926545E-2,1.291065216E-2,2.713840453E-2
1.376024604E1,1.172996913E-2,-3.882819800E-2,7.887893915E-4,4.056899462E-2
1.377020804E1,-5.808500689E-4,-7.052198891E-3,2.139496207E-3,7.392451557E-3
1.378017004E1,-8.528940612E-5,-1.350469273E-3,1.606405556E-2,1.612094670E-2
1.379013204E1,-3.705764282E-3,-1.273043001E-2,9.333325624E-3,1.621442273E-2
1.380009404E1,-9.693741373E-3,1.191879993E-2,2.714745283E-2,3.119311797E-2
1.381005604E1,-4.028728158E-3,2.324958924E-2,3.014298141E-2,3.828019565E-2
1.382001804E1,4.136191303E-3,2.263396880E-2,4.241277874E-2,4.825192661E-2
1.382998004E1,5.565882353E-3,1.164429143E-2,3.013596475E-2,3.278330277E-2
1.383994204E1,-9.047090714E-3,1.762102291E-2,1.680957556E-2,2.597907098E-2
1.384990404E1,-1.269130163E-3,1.090692099E-2,6.176413894E-3,1.259840091E-2
1.385986604E1,4.092339469E-3,-7.555351797E-3,1.829827666E-2,2.021527917E-2
1.386982804E1,7.969068572E-3,-2.228383021E-2,6.769321561E-3,2.461501284E-2
1.387978904E1,-6.667687360E-4,-2.169145245E-2,4.823952913E-3,2.223137899E-2
1.388975104E1,5.643685724E-3,-2.298248112E-2,1.982790828E-3,2.374820175E-2
1.389971304E1,1.704654882E-2,-5.094266038E-2,-4.604682326E-3,5.391606971E-2
1.390967504E1,9.035533327E-3,-3.425565708E-2,-3.704211116E-3,3.562038861E-2
1.391963704E1,2.139102205E-3,-3.323018337E-2,-1.064193249E-4,3.329913167E-2
1.392959904E1,4.441419386E-3,-2.651653826E-2,2.438873649E-3,2.699631664E-2
1.393956104E1,1.754562124E-3,-1.164887784E-2,6.034326553E-3,1.323585812E-2
1.394952304E1,-4.231659661E-4,-3.768110219E-3,2.205277383E-2,2.237638393E-2
1.395948504E1,7.943151245E-3,1.499991713E-2,2.789355755E-2,3.265182565E-2
1.396944704E1,-1.558343271E-2,1.945867488E-2,3.867231488E-2,4.601120887E-2
1.397940904E1,-1.866904952E-2,2.186794700E-2,2.310410321E-2,3.688549988E-2
1.398937079E1,-1.598708930E-2,1.844496869E-2,2.205569744E-2,3.289768508E-2
1.399933279E1,-1.130291339E-2,1.071783666E-2,2.564647257E-2,3.000615652E-2
1.400929479E1,-1.343497153E-3,1.963666778E-2,1.965658486E-2,2.781699183E-2
1.401925579E1,6.509617249E-3,6.687113363E-3,1.381638587E-2,1.667288578E-2
1.402921779E1,4.248046711E-3,4.859840199E-3,1.965073764E-2,2.068369980E-2
1.403917979E1,3.946619318E-4,-1.434539443E-2,1.830003083E-2,2.325590737E-2
1.404914179E1,1.287608050E-2,-2.030973712E-2,1.306034088E-2,2.736514891E-2
1.405910379E1,2.577731773E-2,-3.646780495E-2,-1.283639252E-2,4.646658885E-2
1.406906579E1,1.544458875E-2,-2.484390568E-2,-1.777436614E-2,3.422985630E-2
1.407902779E1,9.966020625E-3,-2.223851429E-2,-1.754749417E-3,2.443260589E-2
1.408898979E1,1.212114786E-2,-2.116671966E-2,3.487864137E-3,2.463975330E-2
1.409895179E1,6.755371612E-3,-2.599628225E-2,1.292410076E-2,2.980728295E-2
1.410891379E1,2.431230013E-3,-1.509827826E-2,1.053434372E-2,1.856990262E-2
1.411887579E1,-2.057495860E-3,1.106592871E-2,5.063688755E-4,1.126696396E-2
1.412883779E1,6.564296710E-3,-5.706151575E-4,2.356194019E-2,2.446590727E-2
1.413879979E1,-1.998265164E-2,1.382544905E-2,4.347404838E-2,4.980403890E-2
1.414876179E1,-1.745866903E-2,1.159166649E-2,2.506233573E-2,3.266944335E-2
1.415872379E1,-2.045526884E-2,1.691782214E-2,2.371221364E-2,3.559353599E-2
1.416868479E1,-1.362763158E-2,1.372780055E-2,3.957629442E-2,4.405051567E-2
1.417864679E1,-1.066449452E-2,1.802234290E-2,1.876663864E-2,2.811979752E-2
1.418860879E1,4.901807676E-3,1.413876845E-2,3.328118205E-2,3.649067786E-2
1.419857079E1,4.702194926E-3,-2.164767142E-3,1.636167884E-2,1.716104275E-2
1.420853279E1,1.212318068E-2,-1.134948213E-2,8.574941754E-3,1.868988711E-2
1.421849479E1,2.664938426E-2,-2.640949767E-2,1.456073642E-2,4.024507788E-2
1.422845679E1,1.560722813E-2,-4.076262139E-2,9.321046472E-3,4.463248570E-2
1.423841879E1,1.511004578E-2,-2.649501320E-2,3.786072135E-3,3.073489141E-2
1.424838079E1,1.095877849E-3,-1.867659152E-2,-5.641393661E-3,1.954076102E-2
1.425834279E1,1.202750561E-2,-2.494709076E-2,-1.177453816E-2,3.009415188E-2
1.426830479E1,7.722393729E-3,-3.843526511E-2,4.696483612E-3,3.948369191E-2
1.427826679E1,4.481347189E-3,-2.470209243E-2,7.845793962E-3,2.630270568E-2
1.428822879E1,-3.417361791E-3,-8.250403013E-3,1.608335137E-2,1.839624154E-2
1.429819079E1,-1.106898023E-2,-1.769623272E-3,2.596631527E-2,2.828256386E-2
1.430815179E1,-7.319324141E-3,2.274020540E-2,1.563896298E-2,2.855287395E-2
1.431811379E1,-1.767319218E-2,1.310123485E-2,3.285492003E-2,3.954023073E-2
1.432807579E1,-1.874305220E-2,6.528891362E-3,4.048846006E-2,4.509150504E-2
1.433803779E1,-6.841628321E-3,2.350067234E-2,4.078608334E-2,4.756673284E-2
1.434799979E1,-3.585396151E-3,2.331950001E-2,3.614222467E-2,4.316149384E-2
1.435796179E1,4.191196243E-3,5.377684236E-3,1.937182546E-2,2.053663154E-2
1.436792379E1,1.117737984E-2,2.237089891E-3,2.430687547E-2,2.684702193E-2
1.437788579E1,4.977350961E-3,-1.043251080E-2,2.250885665E-2,2.530335812E-2
1.438784779E1,1.665129303E-2,-1.324408963E-2,8.287843466E-3,2.283330504E-2
1.439780979E1,1.531004911E-2,-3.066928564E-2,-1.444846988E-3,3.430874915E-2
1.440777179E1,1.660352288E-2,-3.423457056E-2,3.494296074E-3,3.820854484E-2
1.441773379E1,1.616348678E-2,-3.997796159E-2,1.998578310E-3,4.316815995E-2
1.442769579E1,1.417927640E-2,-2.698913947E-2,7.089164257E-3,3.130050764E-2
1.443765779E1,2.562703287E-3,-1.768521437E-2,1.263173997E-2,2.188367223E-2
1.444761879E1,8.022071526E-4,-2.237053346E-2,1.817606986E-2,2.883494094E-2
1.445758079E1,2.399302160E-3,-1.113399396E-2,8.600084782E-3,1.427178792E-2
1.446754279E1,-9.221121896E-3,-3.682759143E-3,2.132421076E-2,2.352262249E-2
1.447750479E1,-1.374060389E-2,1.004498659E-2,8.303046227E-3,1.893796524E-2
1.448746679E1,-1.601977090E-2,2.297970369E-2,3.285433531E-2,4.317530764E-2
1.449742879E1,-1.341386674E-3,2.714491295E-2,3.105924010E-2,4.127132192E-2
1.450739079E1,-2.360133809E-3,3.211060602E-2,2.926180601E-2,4.350763774E-2
1.451735279E1,-7.170929345E-3,2.087636886E-2,3.359868586E-2,4.020095392E-2
1.452731479E1,5.647734236E-3,7.278522681E-3,1.533607721E-2,1.789047397E-2
1.453727679E1,8.226583604E-3,1.526726279E-3,1.248906791E-2,1.503277713E-2
1.454723879E1,2.124602709E-2,-8.238964397E-3,1.742528737E-2,2.868649232E-2
1.455720079E1,1.007583065E-2,-1.967878601E-2,5.447850823E-3,2.276963022E-2
1.456716279E1,2.880324726E-4,-3.174813347E-2,-6.529585719E-3,3.241392342E-2
1.457712479E1,1.018051180E-2,-4.124589376E-2,1.106877923E-3,4.249813821E-2
1.458708679E1,1.131216387E-2,-2.843970576E-2,-3.531133533E-3,3.080991430E-2
1.459704779E1,7.367447183E-3,-2.524714429E-2,1.308723807E-2,2.937640845E-2
1.460700979E1,1.094771217E-2,-4.269322582E-2,2.461677790E-3,4.414321907E-2
1.461697179E1,3.878405609E-3,-7.784580924E-3,1.982907772E-2,2.165257614E-2
1.462693379E1,-2.402781938E-3,-1.558060046E-2,2.447469056E-2,2.911252221E-2
1.463689579E1,-1.237928073E-2,-9.947575629E-4,1.565007269E-2,1.997901172E-2
1.464685779E1,-1.318105162E-2,1.198057942E-2,2.687789619E-2,3.224431281E-2
1.465681979E1,-2.376052169E-2,1.572458815E-2,5.172622383E-2,5.905444348E-2
1.466678179E1,-1.912418445E-2,3.209823551E-2,2.762926340E-2,4.646942382E-2
1.467674379E1,-1.690585590E-2,2.213085243E-2,4.094980538E-2,4.952241062E-2
1.468670579E1,-2.556139102E-2,2.460482765E-2,4.184092104E-2,5.485840800E-2
1.469666779E1,5.970980194E-3,2.441387951E-2,2.926356018E-2,3.857520021E-2
1.470662979E1,7.167338789E-4,4.489565268E-3,3.404950619E-2,3.435169247E-2
1.471659179E1,1.567675404E-2,-4.442951996E-3,1.084658504E-2,1.957418828E-2
1.472655379E1,7.785893121E-3,-1.965055492E-2,3.958564997E-3,2.150429439E-2
1.473651479E1,2.395110437E-2,-1.256659834E-2,8.448057175E-3,2.833627471E-2
1.474647679E1,1.289066313E-2,-2.666008741E-2,-3.975521922E-3,2.987865846E-2
1.475643879E1,1.474865588E-2,-4.144336520E-2,-1.115707219E-2,4.538232728E-2
1.476640079E1,8.419756423E-3,-3.732964799E-2,-6.514382958E-3,3.881793532E-2
1.477636279E1,1.368355471E-2,-4.254032113E-2,-1.421458125E-3,4.470949714E-2
1.478632479E1,2.632294289E-3,-2.138496699E-2,1.983726382E-2,2.928758819E-2
1.479628679E1,-8.463336452E-3,-7.741622161E-3,1.505131781E-2,1.892360815E-2
1.480624879E1,-1.460489089E-2,3.954179585E-5,1.730132639E-2,2.264156126E-2
1.481621079E1,-2.654917989E-3,7.454103604E-3,3.391911328E-2,3.482985064E-2
1.482617279E1,-4.214459482E-3,1.857654931E-2,4.140179515E-2,4.557366010E-2
1.483613479E1,-1.086555423E-3,1.875222160E-2,2.912673533E-2,3.465823320E-2
1.484609679E1,-6.247695107E-3,2.091929108E-2,2.613062203E-2,3.405084200E-2
1.485605879E1,-6.239938410E-4,2.341753224E-2,2.612769842E-2,3.509169146E-2
1.486602079E1,-3.543827244E-3,8.600980137E-3,3.285901308E-2,3.415040719E-2
1.487598279E1,6.195550963E-3,-4.299859665E-3,1.758257747E-2,1.913166682E-2
1.488594379E1,1.413243472E-3,-1.512541300E-2,8.448641896E-3,1.738260410E-2
1.489590579E1,6.857344997E-3,-2.113121610E-2,9.791747332E-3,2.427817518E-2
1.490586779E1,2.139568155E-3,-2.468572022E-2,-5.426216125E-4,2.478420814E-2
1.491582979E1,1.309312983E-2,-3.165181886E-2,-1.835791826E-2,3.886233201E-2
1.492579179E1,2.568397241E-2,-2.925833423E-2,-1.506476641E-2,4.174522425E-2
1.493575379E1,4.867084123E-3,-3.578821231E-2,-1.191837966E-2,3.803330674E-2
1.494571579E1,6.398627503E-3,-4.731426207E-2,1.707971692E-3,4.777550624E-2
1.495567779E1,1.929360753E-3,-4.163444124E-2,-6.823700666E-4,4.168470654E-2
1.496563979E1,-2.803865529E-4,-1.937862284E-2,1.968114316E-2,2.762167693E-2
1.497560179E1,-8.362706099E-3,-1.513562735E-2,1.579274476E-2,2.341864333E-2
1.498556379E1,-8.846004739E-3,1.697868800E-2,3.136212587E-2,3.674385099E-2
1.499552542E1,-9.423663964E-3,2.821678067E-2,4.169006288E-2,5.121575438E-2
1.500548742E1,7.600395915E-3,2.234107811E-2,4.079310000E-2,4.712713440E-2
1.501544942E1,5.652158477E-3,3.027637102E-2,3.091364443E-2,4.363781559E-2
1.502541042E1,-1.320663205E-2,2.595361585E-2,2.597333193E-2,3.902075444E-2
1.503537242E1,1.568798823E-3,2.237078927E-2,4.303316832E-2,4.852594067E-2
1.504533442E1,2.954740823E-3,3.093993863E-2,4.108136773E-2,5.151396966E-2
1.505529642E1,4.345168734E-3,-3.225086611E-3,1.054136038E-2,1.184913303E-2
1.506525842E1,1.257077704E-2,-2.034248153E-2,6.022632122E-5,2.391327283E-2
1.507522042E1,6.341381891E-3,-4.121927066E-2,-8.923435807E-3,4.264820166E-2
1.508518242E1,3.298405213E-3,-3.529330032E-2,9.185975790E-3,3.661801026E-2
1.509514442E1,9.173138182E-3,-4.499260683E-2,-1.117227495E-2,4.725781269E-2
1.510510642E1,-4.842750798E-4,-4.574428467E-2,-7.280368209E-3,4.632254164E-2
1.511506842E1,2.199908680E-3,-2.578559976E-2,-1.236686110E-2,2.868232917E-2
1.512503042E1,8.056661461E-3,-2.724833557E-2,8.144001961E-3,2.955852421E-2
1.513499242E1,2.840377508E-3,-1.768095687E-2,1.054369926E-2,2.078108694E-2
1.514495442E1,8.527184164E-3,-9.989182223E-3,2.237203181E-2,2.594232909E-2
1.515491642E1,7.805572656E-3,1.321211267E-2,3.165741026E-2,3.518065534E-2
1.516487742E1,-6.963628420E-3,2.562728640E-2,5.112162173E-2,5.760789995E-2
1.517483942E1,-1.204387781E-2,2.410056012E-2,4.124333560E-2,4.926362474E-2
1.518480142E1,4.934616038E-5,3.344393564E-2,4.633041322E-2,5.714023500E-2
1.519476342E1,-6.979142956E-4,2.545038985E-2,3.824020565E-2,4.594042616E-2
1.520472542E1,8.871770175E-3,1.279953679E-2,1.892334402E-2,2.450774157E-2
1.521468742E1,-3.064630791E-3,8.008364830E-3,2.101430833E-2,2.269640993E-2
1.522464942E1,1.162319349E-2,-4.551381301E-3,8.735155463E-3,1.523537461E-2
1.523461142E1,1.152714840E-2,-1.748090900E-2,-5.492874384E-3,2.164784051E-2
1.524457342E1,6.228259967E-3,-3.172249708E-2,2.287430763E-3,3.240895529E-2
1.525453542E1,2.808422246E-3,-5.157892881E-2,-2.354673743E-3,5.170897041E-2
1.526449742E1,2.535456632E-3,-4.352574142E-2,-4.000664949E-3,4.378269094E-2
1.527445942E1,1.646855955E-2,-3.898806453E-2,-4.595911503E-3,4.257235055E-2
1.528442142E1,8.169280890E-3,-2.696469080E-2,-8.784272075E-3,2.951262672E-2
1.529438342E1,4.917495801E-3,-2.179363254E-2,8.735740185E-3,2.398869194E-2
1.530434442E1,6.196472584E-3,-8.144056778E-3,-1.434906721E-3,1.033348395E-2
1.531430642E1,3.026634738E-3,-6.767969392E-4,6.653546691E-3,7.340862041E-3
1.532426842E1,-1.376041705E-3,1.288028318E-2,3.240234554E-2,3.489566136E-2
1.533423042E1,7.776848209E-3,1.693057638E-2,3.614397883E-2,4.066338636E-2
1.534419242E1,-6.671306466E-3,3.353845954E-2,5.620285213E-2,6.578826024E-2
1.535415442E1,-9.867002824E-3,3.973365761E-2,4.841728449E-2,6.340626727E-2
1.536411642E1,-6.453345793E-3,2.693276865E-2,2.626101494E-2,3.816622335E-2
1.537407842E1,-3.880224869E-3,2.350609928E-2,4.017680347E-2,4.670940361E-2
1.538404042E1,9.994798747E-4,1.354195045E-2,2.714745283E-2,3.035403725E-2
1.539400242E1,2.448655172E-3,1.253482237E-2,7.981449366E-3,1.506058492E-2
1.540396442E1,1.242587002E-3,-3.133473532E-2,3.786072135E-3,3.158708601E-2
1.541392642E1,1.246799395E-2,-3.452627353E-2,6.776922941E-3,3.732882428E-2
1.542388842E1,1.498863954E-2,-3.660621950E-2,-7.444090247E-3,4.025033045E-2
1.543385042E1,1.091346371E-2,-3.971401462E-2,-3.004825652E-2,5.098239272E-2
1.544381242E1,1.109397365E-2,-4.959518781E-2,-2.211475432E-2,5.542401342E-2
1.545377342E1,9.569231083E-4,-4.407780994E-2,-3.064174891E-2,5.369064915E-2
1.546373542E1,1.284684099E-2,-3.928459145E-2,-1.282002032E-2,4.327439624E-2
1.547369742E1,-1.648024027E-4,-2.054992978E-2,1.054019094E-2,2.309593901E-2
1.548365942E1,-6.317362626E-3,3.807670288E-3,3.090370417E-2,3.177178551E-2
1.549362142E1,-8.103788649E-3,1.248060772E-2,5.276293516E-2,5.482120289E-2
1.550358342E1,-6.384300683E-3,1.750435269E-2,4.528083801E-2,4.896443556E-2
1.551354542E1,-9.504907143E-3,4.195899826E-2,4.303375304E-2,6.085067539E-2
1.552350742E1,6.329142710E-4,3.841229651E-2,4.827110410E-2,6.169282450E-2
1.553346942E1,-1.116413909E-3,2.909274839E-2,3.644277155E-2,4.664450651E-2
1.554343142E1,-3.822343145E-3,8.626360707E-3,3.508972585E-2,3.633611518E-2
1.555339342E1,8.673624939E-4,8.481148761E-3,1.667333543E-2,1.872651373E-2
1.556335542E1,2.352061911E-3,-6.590214036E-3,2.789823532E-2,2.876238256E-2
1.557331742E1,2.265271643E-2,-1.390933832E-2,7.535891533E-3,2.762978312E-2
1.558327942E1,2.217416980E-2,-2.544770379E-2,3.494296074E-3,3.393360487E-2
1.559324042E1,2.270878575E-2,-3.453170048E-2,-1.177512288E-2,4.297418768E-2
1.560320242E1,9.131649218E-3,-4.468330739E-2,-4.021247149E-2,6.080318939E-2
1.561316442E1,1.110114905E-2,-3.511052001E-2,-8.323511481E-3,3.775268162E-2
1.562312642E1,8.826622133E-3,-2.744334022E-2,-1.624941230E-2,3.309213774E-2
1.563308842E1,1.341448344E-3,-2.887234490E-2,3.366826773E-3,2.909892277E-2
1.564305042E1,4.608472738E-3,-9.554989915E-3,2.103477359E-2,2.355838605E-2
1.565301242E1,-2.721779529E-3,-3.429903612E-3,4.259462714E-2,4.281909135E-2
1.566297442E1,-6.829183573E-3,1.850497574E-3,3.855654001E-2,3.920036820E-2
1.567293642E1,-9.223658354E-3,4.008226130E-2,4.694203198E-2,6.241168088E-2
1.568289842E1,-1.148209858E-2,3.682508809E-2,3.122354686E-2,4.962696424E-2
1.569286042E1,-1.792220819E-2,2.492414044E-2,4.514225900E-2,5.459159158E-2
1.570282242E1,-2.372277060E-3,3.493133940E-2,4.798225164E-2,5.939800202E-2
1.571278442E1,4.922576712E-3,3.795464225E-2,4.049255311E-2,5.571744330E-2
1.572274642E1,3.733256474E-3,1.500539890E-2,4.003588557E-2,4.291819350E-2
1.573270842E1,4.756523782E-3,-7.511515953E-3,1.667742848E-2,1.889931245E-2
1.574266942E1,6.235395398E-3,-2.139702687E-2,9.542655945E-4,2.230747717E-2
1.575263142E1,1.437979935E-2,-2.639276002E-2,-9.589433670E-5,3.005604110E-2
1.576259342E1,2.230274459E-2,-4.031779446E-2,3.197257519E-3,4.618613885E-2
1.577255542E1,9.099226864E-4,-5.303444697E-2,-1.446601152E-2,5.497950540E-2
1.578251742E1,1.661114024E-2,-5.987007961E-2,-1.341585159E-2,6.356368056E-2
1.579247942E1,1.150697894E-2,-4.384856254E-2,-3.882551193E-4,4.533495057E-2
1.580244142E1,2.220308839E-4,-2.999062490E-2,3.355717063E-3,3.017859699E-2
1.581240342E1,5.567798687E-3,-1.026325218E-2,1.758140802E-2,2.110546459E-2
1.582236542E1,1.214347919E-3,7.817800418E-3,1.803164363E-2,1.969093233E-2
1.583232742E1,-7.635796694E-3,1.962683715E-2,2.372039974E-2,3.172026941E-2
1.584228942E1,7.519907621E-4,1.762528041E-2,-6.378142834E-3,1.875891004E-2
1.585225142E1,5.023181940E-3,4.845649738E-2,-3.406587839E-2,5.944534099E-2
1.586221342E1,5.949517944E-3,1.931868888E-2,1.297134626E-1,1.312790573E-1
