"Time (s)","Linear Acceleration x (m/s^2)","Linear Acceleration y (m/s^2)","Linear Acceleration z (m/s^2)","Absolute acceleration (m/s^2)"
7.589582819E-4,3.583526412E-2,-4.712177904E-2,6.799025416E-2,9.015155504E-2
1.072095835E-2,-1.461192696E-1,4.808412110E-2,-3.642891365E-1,3.954358338E-1
2.068295830E-2,1.261824113E-1,-6.364650384E-2,3.652989507E-1,3.916838033E-1
3.064495837E-2,-8.770843579E-2,3.362002820E-2,-1.551856881E-1,1.813992112E-1
4.060695833E-2,4.086251741E-2,-1.971847398E-2,1.304426104E-1,1.381080669E-1
5.056895828E-2,2.241035848E-2,-1.715191176E-2,2.743513584E-2,3.935859402E-2
6.053095835E-2,-2.765177518E-2,3.839665521E-3,-1.357127059E-1,1.385543295E-1
7.049295830E-2,7.434277888E-2,-1.475659987E-2,1.524322343E-1,1.702356956E-1
8.045495837E-2,-1.558706666E-2,5.974118505E-3,-1.186522847E-1,1.198207470E-1
9.041695832E-2,5.840525159E-2,-2.104924545E-2,1.337287456E-1,1.474368392E-1
1.003779583E-1,2.945282495E-3,-7.506381366E-3,-5.368679523E-2,5.428897156E-2
1.103399583E-1,3.107389926E-2,9.254095852E-3,3.613345385E-2,4.854742003E-2
1.203019583E-1,8.171662032E-3,1.061050370E-3,5.143795609E-3,9.713934400E-3
1.302639584E-1,6.233914179E-3,1.239392275E-2,1.712357104E-2,2.203832326E-2
1.402260417E-1,1.132553824E-2,-1.167007400E-2,5.903582811E-2,6.123469151E-2
1.501880416E-1,-4.471912844E-3,1.258611342E-2,8.141663074E-3,1.564272780E-2
1.601500417E-1,1.496936315E-3,-1.027713932E-2,3.658135056E-2,3.802703801E-2
1.701120416E-1,-3.945199769E-3,-1.249803973E-2,1.278025925E-2,1.830575388E-2
1.800740417E-1,-1.486057296E-3,-1.333283940E-2,1.891925097E-2,2.319290904E-2
1.900360417E-1,5.225880467E-3,-2.548037510E-2,-1.371172071E-2,2.940358187E-2
1.999980416E-1,-2.445698446E-3,-1.083457997E-2,1.158625782E-2,1.605026275E-2
2.099600417E-1,3.641492876E-3,-1.374400830E-2,2.251528859E-2,2.662886507E-2
2.199220416E-1,7.296925422E-4,-1.168544121E-2,-1.434322000E-3,1.179573088E-2
2.298840417E-1,1.532212041E-2,-6.150101423E-3,6.503273249E-3,1.774496223E-2
2.398460417E-1,1.110761639E-2,-1.562070871E-2,-1.175758123E-2,2.248613793E-2
2.498080416E-1,2.149019860E-2,-1.347311776E-2,3.629132867E-2,4.427656349E-2
2.597700417E-1,2.436008056E-2,-2.395257074E-3,3.659187555E-3,2.474955424E-2
2.697320416E-1,3.483139312E-2,1.775561851E-3,4.033350885E-2,5.332138879E-2
2.796940417E-1,2.304940205E-2,-1.493780874E-3,1.716742516E-3,2.316146630E-2
2.896560417E-1,1.360967195E-2,-7.200297900E-4,3.240234554E-2,3.515186495E-2
2.996180416E-1,1.505980198E-2,1.728857215E-3,1.714988351E-3,1.525541766E-2
3.095800417E-1,1.154455529E-2,2.311477438E-3,1.982790828E-2,2.306004405E-2
3.195420416E-1,-2.984796882E-3,-1.937968265E-3,4.288172543E-2,4.302914256E-2
3.295040417E-1,-5.354217715E-3,2.442710884E-3,2.237729430E-2,2.313823209E-2
3.394660417E-1,-9.254075296E-4,4.258344434E-3,1.569977403E-3,4.631922437E-3
3.494280416E-1,-9.008951336E-3,-1.280852688E-2,2.468109727E-3,1.585279568E-2
3.593900417E-1,5.627874259E-3,-1.016105382E-2,2.506818295E-2,2.762849579E-2
3.693520416E-1,-1.625146796E-3,1.726573147E-3,2.087572932E-2,2.100995554E-2
3.793140417E-1,2.484884384E-2,-7.769889794E-3,6.507366300E-3,2.683620770E-2
3.892760416E-1,7.731394102E-3,-1.196957935E-2,-1.070683658E-2,1.782362573E-2
3.992380416E-1,9.409391962E-3,-1.247985855E-2,-1.444730043E-2,2.128398497E-2
4.092000417E-1,3.220495404E-2,-8.161854241E-3,3.375305235E-2,4.736077990E-2
4.191620416E-1,3.168129477E-2,-2.040798862E-2,2.746963441E-2,4.663444277E-2
4.291240417E-1,3.139024733E-2,-6.835212372E-3,3.300928652E-2,4.606170592E-2
4.390860416E-1,2.463396551E-2,-6.378289014E-3,2.342862368E-2,3.458923583E-2
4.490480417E-1,1.254750238E-2,2.114353180E-3,9.658430815E-3,1.597484245E-2
4.590100417E-1,2.880094035E-3,-3.687711004E-3,2.477640688E-2,2.521437075E-2
4.689720416E-1,-1.589734596E-4,-5.295439493E-3,2.552368104E-2,2.606770504E-2
4.789340417E-1,3.122700951E-3,-1.389020696E-2,1.773752868E-2,2.274442865E-2
4.888960416E-1,-3.341044206E-4,-8.261384815E-4,2.917175889E-3,3.050253387E-3
4.988580417E-1,-2.802594445E-3,5.111087747E-3,2.117686093E-2,2.196445293E-2
5.088190417E-1,3.591589403E-3,-1.220122045E-2,6.655300856E-3,1.435487110E-2
5.187810416E-1,-3.202232220E-3,-1.006676747E-2,3.015526056E-2,3.195205530E-2
5.287430417E-1,1.540760739E-3,-7.558311950E-3,1.324160457E-2,1.532455920E-2
5.387050416E-1,1.488112957E-2,-7.442902531E-3,1.818250179E-2,2.464646398E-2
5.486670417E-1,1.517248537E-3,-5.928565040E-3,1.623596370E-2,1.735097818E-2
5.586290417E-1,1.814347962E-2,-2.698983382E-3,4.861375093E-3,1.897638880E-2
5.685910416E-1,2.159926287E-2,-1.128333550E-2,3.330340147E-2,4.126691612E-2
5.785530417E-1,1.815561716E-2,-1.194070872E-2,1.579157531E-2,2.686225624E-2
5.885150416E-1,6.691093353E-3,-5.843835231E-3,7.410176396E-3,1.156857185E-2
5.984770417E-1,1.987664117E-2,-1.397740357E-3,1.235107362E-2,2.344319862E-2
6.084390417E-1,1.253683007E-2,-1.898170654E-3,1.474726260E-2,1.944882809E-2
6.184010416E-1,1.387695251E-2,1.017062863E-2,2.597508609E-2,3.115632513E-2
6.283630417E-1,3.677590296E-4,-3.483168092E-3,1.145644963E-2,1.197989753E-2
6.383250416E-1,1.449627201E-2,-6.426656451E-3,3.256138980E-2,3.621723238E-2
6.482870417E-1,1.173999847E-3,8.205616996E-3,8.308308721E-3,1.173620125E-2
6.582490416E-1,-2.641673817E-3,-1.628888100E-3,2.986289978E-2,3.002373228E-2
6.682110416E-1,-4.670806113E-5,-4.573143907E-3,2.147916198E-2,2.196065177E-2
6.781730417E-1,-2.777178471E-3,-4.394767284E-3,2.297487974E-2,2.355571690E-2
6.881350416E-1,-4.094684066E-4,-1.291202260E-2,2.312456846E-2,2.648836836E-2
6.980970417E-1,1.824326715E-3,-9.790029712E-3,2.117919981E-2,2.340366114E-2
7.080590416E-1,1.155606243E-3,-1.620451665E-2,8.904139996E-3,1.852580618E-2
7.180210417E-1,1.474284635E-2,-1.473481899E-2,-6.753534079E-4,2.085479589E-2
7.279830417E-1,1.959011389E-2,-6.275250111E-3,8.158620000E-3,2.212949178E-2
7.379450416E-1,3.467149918E-3,8.292082697E-4,8.160374165E-3,8.905078406E-3
7.479070417E-1,2.464398572E-2,-2.666330338E-3,1.010808170E-2,2.676954735E-2
7.578690416E-1,8.965395290E-3,7.356948461E-3,2.043660343E-2,2.349803743E-2
7.678310417E-1,1.785319506E-2,-3.730815947E-3,2.777135074E-2,3.322504302E-2
7.777930417E-1,1.017700347E-2,-5.359503049E-3,5.616835356E-3,1.280017625E-2
7.877550416E-1,1.236395691E-2,-1.391399782E-3,2.133239686E-2,2.469563888E-2
7.977170417E-1,6.719920583E-3,6.377119571E-5,1.549512148E-2,1.688964739E-2
8.076790416E-1,-2.964211714E-3,-1.759756096E-3,7.562788725E-3,8.311381708E-3
8.176410417E-1,1.524684322E-4,-1.106333401E-2,1.325154483E-2,1.726337298E-2
8.276030417E-1,7.709250057E-3,3.712981939E-5,5.916212797E-3,9.717792389E-3
8.375650416E-1,-5.454523730E-3,6.754630432E-3,2.343037784E-2,2.498718606E-2
8.475270417E-1,-2.419656637E-3,-6.138662808E-4,2.567278504E-2,2.579386481E-2
8.574890416E-1,1.131091220E-2,5.893335566E-3,2.252698302E-2,2.588692919E-2
8.674510417E-1,1.107125288E-2,-1.737152953E-3,9.718072414E-4,1.124876660E-2
8.774130417E-1,3.385095896E-3,-8.205141909E-3,1.100212097E-2,1.413612018E-2
8.873750416E-1,1.421335471E-2,-1.161580453E-2,8.610609770E-3,2.027532903E-2
8.973370417E-1,2.484678589E-2,-1.327071274E-2,6.514967680E-3,2.891227057E-2
9.072990416E-1,1.698144829E-2,-4.627943281E-3,1.654528141E-2,2.415644391E-2
9.172610417E-1,1.932861088E-2,-1.459958386E-3,5.318042636E-3,2.009995658E-2
9.272230417E-1,9.599634320E-3,7.883508503E-4,1.684407413E-2,1.940353858E-2
9.371840417E-1,-9.723451396E-4,6.659010183E-3,6.814345121E-3,9.577221472E-3
9.471460417E-1,5.997107655E-3,-4.910948519E-3,1.983843327E-2,2.129897063E-2
9.571080416E-1,3.401334481E-3,1.217118038E-2,1.070683658E-2,1.656330455E-2
9.670700417E-1,4.749901125E-3,-2.584067322E-3,2.268427312E-2,2.331984588E-2
9.770320416E-1,-4.036110268E-3,-7.980535738E-3,1.909174383E-2,2.108254774E-2
9.869940417E-1,-5.189860705E-5,-1.063003706E-2,1.519866765E-2,1.854723374E-2
9.969560417E-1,-3.341960118E-3,-5.116733965E-3,1.894147038E-2,1.990298883E-2
1.006918042E0,3.042161266E-3,-1.366976693E-2,1.519983709E-2,2.066766365E-2
1.016880042E0,-1.493597006E-3,-2.389968999E-2,2.747606635E-2,3.644667661E-2
1.026842042E0,1.204249138E-2,-3.792156894E-3,1.400291204E-2,1.885427268E-2
1.036804042E0,1.661944169E-2,-7.495582290E-3,1.699551702E-2,2.492463028E-2
1.046766042E0,5.566832526E-3,-5.107999686E-3,1.909174383E-2,2.053231520E-2
1.056728042E0,-8.047367586E-4,-3.529562093E-3,3.046574771E-2,3.068007812E-2
1.066690042E0,2.291456434E-2,-3.081044108E-3,1.025777042E-2,2.529410891E-2
1.076652042E0,1.149394832E-2,8.447582088E-4,2.357889712E-2,2.624478717E-2
1.086614042E0,7.509012613E-3,1.621414628E-3,1.534543276E-2,1.716090214E-2
1.096576042E0,1.988670020E-2,-1.489669550E-3,6.064147353E-3,2.084403616E-2
1.106538042E0,2.336823062E-2,2.557170130E-3,8.758544326E-3,2.508635924E-2
1.116500042E0,1.164663717E-2,1.081077084E-2,8.608270884E-3,1.807261052E-2
1.126462042E0,7.682199832E-3,-1.263742274E-2,3.046106994E-2,3.386144459E-2
1.136424042E0,2.053768260E-3,-1.423906647E-2,2.208142519E-2,2.635447431E-2
1.146385917E0,2.927703161E-3,-1.328184072E-2,2.672002137E-2,2.998229945E-2
1.156347917E0,4.045216850E-3,-1.518293498E-2,2.237787902E-2,2.734327639E-2
1.166309917E0,6.464734159E-3,-6.704636738E-3,8.008931279E-3,1.228364448E-2
1.176271917E0,2.210297766E-3,-2.132013598E-2,5.013987422E-3,2.201303442E-2
1.186233917E0,1.380848070E-2,-1.201474909E-2,5.163091421E-3,1.901804007E-2
1.196195917E0,5.244674926E-3,-1.509897262E-2,1.354799867E-2,2.095313478E-2
1.206157917E0,-1.053917224E-3,-8.778680675E-3,1.953496277E-2,2.144273179E-2
1.216119917E0,-4.208484358E-3,-1.027355790E-3,1.848772645E-2,1.898849204E-2
1.226081917E0,2.384940850E-2,2.600457799E-3,1.100621402E-2,2.639495053E-2
1.236043917E0,8.113500508E-3,2.893202305E-3,2.373034000E-2,2.524536684E-2
1.246005917E0,5.468933919E-3,3.755867612E-3,2.013430238E-2,2.119919602E-2
1.255967917E0,1.055939310E-2,-1.450493205E-3,3.300694764E-2,3.468520298E-2
1.265929917E0,-5.337091768E-4,-6.484744884E-4,2.477289855E-2,2.478713109E-2
1.275891917E0,7.627078404E-3,1.007252332E-2,1.818367124E-2,2.214213067E-2
1.285853917E0,4.771612339E-3,-5.724844392E-3,1.713409603E-2,1.868473640E-2
1.295815917E0,6.979712831E-3,-1.253568118E-2,2.686210871E-2,3.045377773E-2
1.305777917E0,3.796111759E-3,-1.097909756E-2,9.496462941E-3,1.500446121E-2
1.315739917E0,3.047903414E-3,-4.624873493E-3,1.772758842E-2,1.857273704E-2
1.325701917E0,1.510797185E-3,-2.474000797E-2,1.428650200E-2,2.860864628E-2
1.335663917E0,-2.880052922E-3,-9.753594249E-3,9.495878220E-3,1.391398609E-2
1.345625917E0,7.912687480E-4,-2.057439672E-2,1.159210503E-2,2.362855911E-2
1.355586917E0,1.029101961E-3,2.871001158E-3,2.162300348E-2,2.183703226E-2
1.365548917E0,-3.709926998E-3,6.271138787E-4,1.533549249E-2,1.579031856E-2
1.375510917E0,1.944152609E-2,1.188373491E-3,1.713292658E-2,2.594074675E-2
1.385472917E0,2.087972187E-2,-4.303769991E-3,1.279429257E-2,2.486320864E-2
1.395434917E0,8.744521287E-3,2.326479200E-3,1.040219665E-2,1.378712635E-2
1.405396917E0,1.086709826E-2,-1.995106526E-3,2.088391542E-2,2.362651472E-2
1.415358917E0,1.373025706E-2,-2.221083138E-3,1.714403629E-2,2.207648409E-2
1.425320917E0,1.365537730E-2,4.721188098E-3,2.417765200E-2,2.816589787E-2
1.435282917E0,-1.806636604E-3,4.152838737E-3,3.061368227E-2,3.094685037E-2
1.445244917E0,-2.415997559E-3,-9.325998332E-3,2.253049135E-2,2.450376154E-2
1.455206917E0,1.304924944E-3,3.963096589E-3,1.849006534E-2,1.895498562E-2
1.465168917E0,3.659187555E-3,-5.400524922E-3,2.267959535E-2,2.359913914E-2
1.475130917E0,3.377362039E-3,-1.403092386E-2,1.594184875E-2,2.150385873E-2
1.485092917E0,4.918420849E-3,-1.670158479E-2,2.327601135E-2,2.906727546E-2
1.495054917E0,-1.268497476E-3,2.911091130E-3,7.558695674E-3,8.198622915E-3
1.505016917E0,2.867579623E-4,-1.510120187E-2,6.209158301E-3,1.633040645E-2
1.514978917E0,1.212041810E-2,-1.256875450E-2,2.297429502E-2,2.885647858E-2
1.524940917E0,1.873202243E-2,-1.846706020E-2,2.147916198E-2,3.395990836E-2
1.534902917E0,1.334222921E-2,-1.385132298E-2,2.133005798E-2,2.872012538E-2
1.544864917E0,1.395332377E-2,-5.131461639E-3,1.175290346E-2,1.895146123E-2
1.554826917E0,1.250456874E-2,-3.734397367E-3,-3.966166377E-3,1.363966418E-2
1.564788917E0,-2.489188254E-3,3.032110222E-3,2.237846375E-2,2.271971369E-2
1.574750917E0,7.564290500E-3,-4.136174172E-3,2.881449401E-2,3.007659377E-2
1.584712917E0,1.191192374E-2,-1.813714933E-3,2.477114439E-2,2.754619908E-2
1.594674917E0,3.636554719E-3,-4.764768127E-3,9.950791597E-3,1.161661736E-2
1.604636917E0,5.593247779E-3,-1.480350550E-3,1.683647275E-2,1.780288384E-2
1.614598917E0,2.140332176E-2,1.688346975E-3,2.282343686E-2,3.133467676E-2
1.624560917E0,1.184738967E-2,-4.036406055E-5,2.102541804E-2,2.413359640E-2
1.634522917E0,-1.625221028E-3,-1.054090356E-2,2.087631404E-2,2.344296226E-2
1.644484917E0,1.441179687E-2,-8.276496213E-3,9.798763990E-3,1.929290166E-2
1.654446917E0,-7.736711414E-5,-6.632496715E-3,1.174471736E-2,1.348830546E-2
1.664408917E0,4.142263499E-3,-4.725737963E-3,1.997876644E-2,2.094378320E-2
1.674370917E0,-3.515394016E-3,-1.311786287E-3,1.982966244E-2,2.018153341E-2
1.684332917E0,9.022677446E-3,-2.112270109E-2,8.006007671E-3,2.432433696E-2
1.694294917E0,3.174803982E-3,-1.424820274E-2,5.610988140E-3,1.563885704E-2
1.704256917E0,4.867706532E-3,-2.057361100E-2,1.070157409E-2,2.369581660E-2
1.714218917E0,1.596368217E-2,-1.403993223E-2,1.923500061E-2,2.866956738E-2
1.724180917E0,6.415922471E-3,-2.959824018E-3,1.743873596E-2,1.881579473E-2
1.734142917E0,1.934742247E-2,-4.629880171E-3,2.761815369E-2,3.403705275E-2
1.744104917E0,1.055243354E-2,-5.887597986E-3,2.013547182E-2,2.348307665E-2
1.754066917E0,1.371331384E-2,1.761638168E-3,3.555282533E-2,3.814658221E-2
1.764028917E0,1.032161128E-2,-3.754935712E-3,2.851687074E-2,3.055891226E-2
1.773990917E0,2.413128998E-2,8.234578986E-3,2.357655823E-2,3.472724500E-2
1.783952917E0,9.934122465E-3,5.628493242E-4,3.196029603E-2,3.347333433E-2
1.793913917E0,-1.255535387E-3,-4.661144502E-4,2.282869935E-2,2.286795019E-2
1.803875917E0,1.265378580E-3,-1.057505496E-3,4.266713262E-3,4.574313378E-3
1.813837917E0,1.038250569E-2,-1.072129017E-2,9.504064322E-3,1.769377647E-2
1.823799917E0,1.303769777E-2,-1.346378049E-2,2.210247517E-4,1.874310007E-2
1.833761917E0,-1.548330142E-3,-7.335076220E-3,1.039985776E-2,1.282020713E-2
1.843723917E0,8.558085328E-3,-1.266207241E-2,1.294339657E-2,2.002749153E-2
1.853685917E0,-2.803907784E-3,3.203945272E-3,6.656470299E-3,7.901630275E-3
1.863647917E0,1.487062172E-2,-2.149251921E-2,1.249433041E-2,2.896846673E-2
1.873609917E0,1.021398254E-2,2.750164792E-3,9.949622154E-3,1.452183965E-2
1.883571917E0,7.582263836E-3,8.273810148E-5,2.087631404E-2,2.221076447E-2
1.893533917E0,7.543994266E-3,-2.611001059E-3,1.668502986E-2,1.849646987E-2
1.903495917E0,1.656887355E-2,2.580650356E-3,1.459055722E-2,2.222772339E-2
1.913457917E0,1.293735292E-2,1.150998820E-2,2.357363462E-2,2.925014835E-2
1.923419917E0,1.290870271E-2,1.384324651E-2,1.489285827E-2,2.408458650E-2
1.933381917E0,4.520686845E-3,1.088921489E-2,1.444320738E-2,1.864451260E-2
1.943343917E0,6.738598554E-3,-9.140294418E-4,8.754451275E-3,1.108533163E-2
1.953305917E0,1.404990676E-2,-1.082080247E-2,1.773635924E-2,2.508122973E-2
1.963267917E0,6.768275457E-3,-9.617664758E-3,-1.573485732E-3,1.186528067E-2
1.973229917E0,1.196577866E-2,-1.578507029E-2,9.718072414E-4,1.983160891E-2
1.983191917E0,9.823240070E-3,-6.589629315E-4,5.761846304E-3,1.140741647E-2
1.993153917E0,1.302690212E-2,-1.458936950E-2,2.252756774E-2,2.983355811E-2
2.003115917E0,6.288294427E-3,-1.699140569E-2,6.810252070E-3,1.935536224E-2
2.013077917E0,4.843744368E-4,-2.052188141E-2,-3.515930772E-3,2.082652166E-2
2.023039917E0,6.522364636E-3,-1.516601460E-2,5.016911030E-3,1.725452508E-2
2.033001917E0,-7.928801584E-5,-1.502562661E-2,1.025660098E-2,1.819267999E-2
2.042963917E0,-2.141251514E-3,-6.700032055E-3,1.594594181E-2,1.742838052E-2
2.052925917E0,1.220378660E-2,-6.467057057E-3,2.777368963E-2,3.101826994E-2
2.062887917E0,8.564842745E-3,-1.746928766E-3,1.819536567E-2,2.018612452E-2
2.072849917E0,-2.668728610E-4,5.117921680E-3,1.610030830E-2,1.689627979E-2
2.082811917E0,8.716997118E-3,2.275115065E-4,1.714695990E-2,1.923684054E-2
2.092773917E0,1.442808685E-2,1.040438935E-4,1.744516790E-2,2.263878085E-2
2.102735917E0,1.050420429E-2,2.986611575E-3,7.265750170E-3,1.311675577E-2
2.112697917E0,1.211031109E-2,-4.603622518E-3,-4.560828209E-3,1.373514212E-2
2.122659917E0,1.021416983E-2,1.100900972E-2,3.181236148E-2,3.517888434E-2
2.132621917E0,-3.147238700E-3,2.674790528E-3,2.073364198E-2,2.114103890E-2
2.142583792E0,-1.986226067E-4,-9.735540971E-3,1.833862245E-2,2.076355659E-2
2.152545792E0,9.213723798E-3,8.191218227E-4,1.250251651E-2,1.555238200E-2
2.162507792E0,1.621127977E-3,-1.479977790E-2,1.190551579E-2,1.906312640E-2
2.172469792E0,6.593043997E-4,-9.485590775E-3,1.445197821E-2,1.729944475E-2
2.182431792E0,1.383050369E-2,-2.242441921E-2,1.684875190E-2,3.127327693E-2
2.192393792E0,4.288950954E-3,1.705230810E-3,3.226493597E-3,5.631445048E-3
2.202355792E0,7.628623577E-3,-9.053170905E-3,3.818231821E-4,1.184489722E-2
2.212317792E0,8.547963478E-3,-1.990976930E-3,1.819361150E-2,2.019997941E-2
2.222278792E0,4.858098597E-3,-9.008293524E-3,2.013898015E-2,2.259046249E-2
2.232240792E0,-8.600066509E-4,-1.173643989E-2,1.475135565E-2,1.887024447E-2
2.242202792E0,2.421495313E-3,-7.517692074E-4,1.325271428E-2,1.349308090E-2
2.252164792E0,-3.234081273E-3,-5.464990474E-3,6.814345121E-3,9.314542501E-3
2.262126792E0,1.121756574E-2,6.551092509E-3,3.255963564E-2,3.505539141E-2
2.272088792E0,5.687230350E-3,-4.062480982E-3,2.866714418E-2,2.950683813E-2
2.282050792E0,1.448920281E-2,-9.245909750E-4,1.788955629E-2,2.303970683E-2
2.292012792E0,1.255468578E-2,-5.817431398E-4,2.163060486E-2,2.501682687E-2
2.301974792E0,-2.727233885E-3,-3.866544440E-3,1.534367859E-2,1.605666352E-2
2.311936792E0,1.171441120E-2,-1.465467559E-2,2.417531312E-2,3.060118806E-2
2.321898792E0,1.372309422E-2,-1.345078871E-2,1.190083802E-2,2.260258785E-2
2.331860792E0,3.007221868E-3,-1.322497655E-2,1.040570498E-2,1.709450450E-2
2.341822792E0,1.504936836E-2,-1.463751767E-2,3.151356876E-2,3.786615147E-2
2.351784792E0,1.322786247E-2,-6.854672637E-3,9.359638095E-3,1.759447947E-2
2.361746792E0,-1.968004910E-3,-1.024591153E-2,1.564948797E-2,1.880846140E-2
2.371708792E0,5.899917110E-3,-1.490345635E-3,2.104003608E-2,2.190235764E-2
2.381670792E0,4.126207639E-3,-4.491246343E-3,8.766145706E-3,1.067905397E-2
2.391632792E0,1.268683514E-2,-6.101003084E-3,1.580034614E-2,2.116196972E-2
2.401594792E0,5.147064112E-3,-1.490966901E-2,6.069994569E-3,1.690074948E-2
2.411556792E0,1.270953992E-2,-5.895473454E-3,2.088859320E-2,2.515198477E-2
2.421518792E0,1.193626963E-2,-8.748439606E-3,2.687614202E-2,3.068121149E-2
2.431480792E0,3.207019628E-3,-1.381039247E-3,3.046808660E-2,3.066751613E-2
2.441442792E0,1.385036710E-2,-2.389117498E-3,1.624648869E-2,2.148229378E-2
2.451404792E0,1.128639615E-2,1.285364181E-3,3.525871038E-2,3.704337400E-2
2.461366792E0,-1.875712549E-3,3.327613883E-3,6.071164012E-3,7.172889528E-3
2.471328792E0,1.112830206E-2,-1.606102232E-3,6.968711615E-3,1.322806156E-2
2.481290792E0,1.108111320E-3,-7.050115820E-3,-1.715573072E-3,7.339975119E-3
2.491252792E0,4.112560329E-3,-1.034180587E-2,1.115765691E-2,1.575942286E-2
2.501214792E0,6.891825297E-3,2.451792341E-3,5.920305848E-3,9.410555932E-3
2.511176792E0,3.069029907E-3,-3.268593550E-4,1.864209294E-2,1.889585698E-2
2.521138792E0,5.282574476E-3,-1.057956828E-2,6.515552402E-3,1.350130665E-2
2.531100792E0,2.385663758E-2,2.229506783E-3,3.016812444E-2,3.852564846E-2
2.541062792E0,1.056512840E-2,-7.100675963E-3,2.253575385E-2,2.588246006E-2
2.551024792E0,8.838637476E-3,-1.342325198E-2,5.322135687E-3,1.693016049E-2
2.560986792E0,4.053184823E-3,-7.603573054E-3,9.809288979E-3,1.305621617E-2
2.570948792E0,1.180503162E-2,2.762480490E-3,2.058629215E-2,2.389111748E-2
2.580910792E0,1.442251144E-3,-1.478771802E-2,2.238314152E-2,2.686562333E-2
2.590872792E0,3.236915802E-3,2.579828091E-3,2.163469791E-2,2.202710355E-2
2.600834792E0,-7.484002062E-4,1.184335258E-3,2.642181337E-2,2.645892996E-2
2.610796792E0,-4.197234178E-3,-4.835354984E-3,1.759134829E-2,1.872038908E-2
2.620758792E0,6.211820383E-3,-1.555602388E-2,1.160204530E-2,2.037606553E-2
2.630720792E0,8.700131555E-4,-4.919554889E-3,1.788897157E-2,1.857348236E-2
2.640681792E0,2.025815828E-3,-6.338838581E-3,-6.706756353E-4,6.688393689E-3
2.650643792E0,4.899275786E-3,-2.504271101E-3,1.250310123E-2,1.366022757E-2
2.660605792E0,5.589707473E-3,-1.092104567E-2,1.145644963E-2,1.678583648E-2
2.670567792E0,1.913225521E-2,-1.269129021E-2,7.563958168E-3,2.417282565E-2
2.680529792E0,7.885059386E-3,-1.534649257E-2,1.878944278E-2,2.550945228E-2
2.690491792E0,4.129019327E-3,-3.211345654E-3,1.804099917E-2,1.878401429E-2
2.700453792E0,1.097184107E-2,2.482618131E-3,2.672294497E-2,2.899414557E-2
2.710415792E0,5.150608986E-3,1.405451372E-3,9.808704257E-3,1.116757564E-2
2.720377792E0,-3.468136636E-3,2.335779928E-4,1.654411197E-2,1.690532967E-2
2.730339792E0,1.419539964E-2,-1.376737889E-2,1.789306462E-2,2.666855553E-2
2.740301792E0,9.091657461E-3,-1.227738043E-2,1.489987493E-2,2.134006979E-2
2.750263792E0,1.189224078E-2,1.576062161E-3,6.968126893E-3,1.387314511E-2
2.760225792E0,1.614018014E-2,-1.175171575E-2,1.490162909E-2,2.491318501E-2
2.770187792E0,8.813538988E-3,-9.960768409E-3,1.505131781E-2,2.008575477E-2
2.780149792E0,1.077893092E-3,-3.340660483E-3,2.507929265E-2,2.532375932E-2
2.790111792E0,7.067853897E-3,6.270225160E-3,3.226376653E-2,3.361875835E-2
2.800073792E0,8.313270860E-3,-1.358235106E-2,1.938878238E-2,2.509014976E-2
2.810035792E0,-3.060233959E-3,-7.707543857E-3,1.849006534E-2,2.026459426E-2
2.819997792E0,4.866517674E-3,-1.125473896E-2,2.178204775E-2,2.499619466E-2
2.829959792E0,1.326355903E-2,-1.852598917E-3,7.412515283E-3,1.530684500E-2
2.839921792E0,8.630900293E-3,-2.465770841E-3,-1.568223238E-3,9.112178106E-3
2.849883792E0,-3.841837670E-3,-7.071512975E-3,6.663486958E-3,1.044835254E-2
2.859845792E0,4.864965649E-3,-4.896622840E-3,1.145118713E-2,1.337065790E-2
2.869807792E0,1.151073623E-2,-1.418147139E-2,1.863624573E-2,2.609445984E-2
2.879769792E0,-1.212528659E-3,-9.072174355E-3,1.369651794E-2,1.647328677E-2
2.889731792E0,9.532677991E-3,-2.633311842E-3,-3.218892217E-3,1.040036288E-2
2.899693792E0,7.463341519E-3,-8.917186595E-4,2.133181214E-2,2.261731280E-2
2.909655792E0,1.365997399E-2,-7.372827306E-3,2.178146303E-2,2.674669332E-2
2.919617792E0,7.894224211E-3,-7.523173839E-3,3.121185243E-2,3.306201223E-2
2.929579792E0,7.305221159E-3,-2.149984650E-3,1.025601625E-2,1.277397979E-2
2.939541792E0,1.386438557E-2,5.439189635E-4,3.181119204E-2,3.470546029E-2
2.949503792E0,1.506488860E-2,1.159923133E-3,5.016326308E-3,1.592042148E-2
2.959465792E0,1.367281845E-2,-3.163033035E-3,2.920684218E-3,1.433461331E-2
2.969427792E0,9.035170160E-3,7.774055935E-4,1.160087585E-2,1.472477436E-2
2.979389792E0,3.670749511E-3,2.046525478E-3,2.192764342E-2,2.232676005E-2
2.989351792E0,1.106481637E-3,-1.336918350E-2,1.923324645E-2,2.344945923E-2
2.999313792E0,4.451718251E-3,-2.789871041E-3,2.866539001E-2,2.914285093E-2
3.009275792E0,2.427242486E-2,-8.520142380E-3,1.683705747E-2,3.074459203E-2
3.019237792E0,1.415293081E-2,-8.871176317E-3,2.297546446E-2,2.840554853E-2
3.029199792E0,1.083758580E-3,-1.558960883E-2,1.085067809E-2,1.902492184E-2
3.039161792E0,1.395451377E-2,-1.303742711E-2,1.504547060E-2,2.431191366E-2
3.049123792E0,-3.718328944E-3,-7.222005688E-3,8.014778495E-3,1.141139828E-2
3.059085792E0,1.325437365E-2,-9.172490649E-3,2.103769720E-2,2.650278681E-2
3.069046792E0,1.436866680E-2,-1.086189743E-2,1.160847723E-2,2.142886243E-2
3.079008792E0,5.998352473E-3,-3.351148926E-3,1.370353460E-2,1.532962140E-2
3.088970792E0,-4.471749533E-4,-3.724475373E-3,3.001785100E-2,3.025133155E-2
3.098932792E0,1.464296517E-2,-9.055692516E-3,2.357948184E-2,2.919612919E-2
3.108894792E0,1.182533927E-2,4.977625050E-4,1.474433899E-2,1.890719304E-2
3.118856792E0,1.413948793E-2,-5.215277821E-3,1.654118836E-2,2.237711228E-2
3.128818792E0,3.774678059E-3,-1.942207497E-3,1.354799867E-2,1.419748683E-2
3.138780792E0,7.502858191E-3,-5.687586665E-3,6.213251352E-3,1.128033756E-2
3.148742958E0,-2.798931941E-4,-2.373551114E-2,1.115122497E-2,2.622599183E-2
3.158704958E0,1.240952180E-2,-1.214002568E-2,1.564013243E-2,2.336643313E-2
3.168666958E0,1.351765367E-2,-3.651366904E-3,5.612157583E-3,1.508495124E-2
3.178628958E0,1.336550387E-2,7.539747041E-3,1.070274353E-2,1.870917417E-2
3.188590958E0,3.822467626E-3,-1.626847057E-2,1.519340515E-2,2.258570241E-2
3.198552958E0,1.599288855E-3,-1.287134791E-2,1.384737611E-2,1.897311643E-2
3.208514958E0,2.282289325E-3,-4.472809341E-3,7.260487676E-3,8.827771477E-3
3.218476958E0,8.997328853E-3,2.083088849E-3,3.181060731E-2,3.312409883E-2
3.228438958E0,5.965697144E-3,-6.416953728E-3,1.399648011E-2,1.651267068E-2
3.238400958E0,1.163570790E-2,-1.273181872E-2,1.893737733E-2,2.561470606E-2
3.248362958E0,-1.217970452E-3,-1.040826313E-2,1.414909244E-2,1.760716360E-2
3.258324958E0,1.975959179E-4,1.913738865E-3,1.639325380E-2,1.650576296E-2
3.268286958E0,1.384252817E-2,-4.190608095E-3,2.163177431E-2,2.602134589E-2
3.278248958E0,1.415179106E-2,7.536147349E-4,2.267901063E-2,2.674282424E-2
3.288210958E0,-1.992748225E-3,-4.388719071E-3,2.028574526E-2,2.085050027E-2
3.298172958E0,6.202424867E-3,-3.818231821E-3,1.938819766E-2,2.071113655E-2
3.308134958E0,1.201204589E-2,-4.118120894E-3,1.504722476E-2,1.968926457E-2
3.318096958E0,-2.880930004E-3,-6.291001048E-3,1.953613222E-2,2.072527235E-2
3.328058958E0,9.086353853E-3,2.075030655E-3,4.867222309E-3,1.051462941E-2
3.338020958E0,9.629810293E-3,-1.947853714E-3,1.848831117E-2,2.093669101E-2
3.347982958E0,3.733524852E-3,-8.750741947E-3,1.714286685E-2,1.960593217E-2
3.357944958E0,-5.590052367E-4,-3.479787670E-3,2.163294375E-2,2.191815832E-2
3.367906958E0,4.191117443E-3,-9.092712700E-3,6.747686863E-4,1.003484940E-2
3.377868958E0,1.986899867E-4,-3.895104434E-3,1.579449892E-2,1.626891245E-2
3.387830958E0,1.853084281E-3,-8.058102708E-3,1.803866029E-2,1.984339199E-2
3.397792958E0,6.554511760E-4,-1.375374757E-4,7.111968398E-3,7.143432459E-3
3.407754958E0,7.939632637E-3,9.521277063E-4,1.444963932E-2,1.651473252E-2
3.417716958E0,-1.829369939E-3,-2.156782039E-3,1.086003363E-2,1.122223835E-2
3.427678958E0,5.460097999E-3,-1.594754979E-2,1.759661078E-2,2.436755477E-2
3.437640958E0,1.000878067E-2,6.577898338E-3,1.490455270E-2,1.912041130E-2
3.447602958E0,5.470849110E-3,-1.537435820E-2,2.299066722E-2,2.819347193E-2
3.457564958E0,1.511071273E-4,-2.770339513E-2,9.070785642E-3,2.915098776E-2
3.467526958E0,6.151099561E-3,-6.621058099E-4,3.316833079E-2,3.374037014E-2
3.477488958E0,-4.206694791E-3,6.242103707E-3,-7.248208523E-3,1.044972088E-2
3.487450958E0,6.753425585E-3,-1.274270916E-2,-5.087077618E-4,1.443066795E-2
3.497411958E0,6.435447831E-3,-3.633733895E-3,3.496401072E-2,3.573655070E-2
3.507373958E0,-5.955469084E-4,-7.177110035E-3,3.677898645E-3,8.086564352E-3
3.517335958E0,3.411795516E-3,-1.234312506E-2,5.625606179E-3,1.398715589E-2
3.527297958E0,7.710311007E-3,-6.686364189E-3,-1.413213551E-2,1.743197109E-2
3.537259958E0,1.242981575E-2,-1.355488742E-2,9.967163801E-3,2.091840450E-2
3.547221958E0,-1.238576177E-3,-1.202635216E-2,2.029510081E-2,2.362325833E-2
3.557183958E0,6.209763580E-3,1.854773350E-3,1.356027782E-2,1.502938729E-2
3.567145958E0,7.171839547E-3,-7.050773632E-3,-9.612822533E-4,1.010310620E-2
3.577107958E0,1.345959265E-2,2.498277705E-3,1.655288279E-2,2.148022240E-2
3.587069958E0,5.509066146E-3,-1.363811888E-2,1.580385447E-2,2.158957879E-2
3.597031958E0,9.711747828E-3,-1.165266026E-2,9.964824915E-3,1.814938766E-2
3.606993958E0,7.813550908E-3,-7.774384841E-3,2.149085641E-2,2.415263022E-2
3.616955958E0,1.392683771E-2,4.626828656E-3,-1.278727591E-2,1.946480869E-2
3.626917958E0,-1.412957964E-3,-1.251304150E-4,2.942377388E-2,2.945794591E-2
3.636879958E0,2.137541045E-2,-2.655914985E-4,3.181879342E-2,3.833294047E-2
3.646841958E0,7.456150129E-3,-6.124318857E-3,1.310828805E-2,1.627662962E-2
3.656803958E0,8.194894436E-3,-1.563229350E-2,1.685226023E-2,2.440335161E-2
3.666765958E0,1.537504913E-2,6.110705808E-4,1.670491040E-2,2.271166164E-2
3.676727958E0,-1.339812950E-3,2.390012853E-3,2.269304395E-2,2.285785431E-2
3.686689958E0,3.430656212E-3,-1.102240350E-2,3.062479198E-2,3.272828539E-2
3.696651958E0,1.544132138E-2,3.393943235E-4,2.897880077E-2,3.283779056E-2
3.706613958E0,-5.317638356E-3,-8.529132474E-3,1.865144849E-2,2.118725818E-2
3.716575958E0,1.221645747E-2,-1.263374995E-2,1.446191847E-2,2.275962559E-2
3.726537958E0,-9.793652245E-4,-8.091176022E-3,2.090087235E-2,2.243374134E-2
3.736499958E0,-2.622744598E-3,8.735922910E-4,1.192013383E-2,1.223648410E-2
3.746461958E0,1.333207881E-2,-1.070701931E-2,6.233716607E-3,1.820010468E-2
3.756423958E0,4.648469064E-3,-9.825569820E-3,2.180192828E-2,2.436132516E-2
3.766385958E0,1.506588560E-2,-1.114389768E-2,6.382820606E-3,1.979666041E-2
3.776347958E0,2.274825902E-2,-2.026089460E-2,1.281885087E-2,3.305011462E-2
3.786309958E0,1.229001590E-2,-1.094205910E-2,1.760830522E-2,2.410032284E-2
3.796271958E0,8.673909305E-3,-1.246260926E-2,1.955484331E-2,2.475773069E-2
3.806233958E0,-4.586947676E-3,-2.051110061E-2,4.285424352E-3,2.145017946E-2
3.816195958E0,3.491583742E-3,-7.824524716E-3,-8.028227091E-4,8.605746241E-3
3.826157958E0,2.388463112E-3,8.749590777E-3,8.029981256E-3,1.211365732E-2
3.836119958E0,8.375266192E-3,8.029926438E-3,2.314737260E-2,2.589257926E-2
3.846081958E0,-1.041258916E-3,-1.305749036E-2,6.830717325E-3,1.477298121E-2
3.856043958E0,-3.486109972E-3,-7.896975372E-3,1.895374954E-2,2.082690098E-2
3.866005958E0,1.097286319E-2,-6.667653099E-3,1.012153029E-2,1.634951681E-2
3.875967958E0,-4.043752762E-3,2.501676399E-3,6.078765392E-3,7.717623332E-3
3.885929958E0,7.904766330E-3,-9.895919133E-3,2.718429029E-2,2.999000141E-2
3.895891958E0,1.328592806E-2,-2.418340785E-2,1.820472121E-2,3.305699584E-2
3.905853958E0,5.135739699E-3,-2.524665093E-2,1.401402175E-2,2.932851874E-2
3.915815958E0,-1.512822012E-3,-1.552126950E-2,2.239717484E-2,2.729160819E-2
3.925776958E0,1.033527686E-2,-1.147055604E-2,2.793507278E-2,3.191801834E-2
3.935738958E0,1.155274482E-2,-1.264509721E-2,1.281592727E-2,2.139187668E-2
3.945700958E0,-4.738285494E-3,-2.031971393E-2,2.224748611E-2,3.050070101E-2
3.955662958E0,9.975654826E-3,-1.407735441E-2,1.551266313E-2,2.320190323E-2
3.965624958E0,8.397252636E-3,-6.856719162E-3,-2.301464081E-3,1.108265250E-2
3.975586958E0,4.631788511E-3,3.752267919E-4,1.446250319E-2,1.519072936E-2
3.985548958E0,1.224322904E-2,-1.663203947E-3,2.134643018E-2,2.466440727E-2
3.995510958E0,1.769607855E-2,1.438670866E-3,1.042032301E-2,2.058650290E-2
4.005472958E0,7.621775939E-3,-3.136044480E-3,2.036000490E-3,8.489495947E-3
4.015434958E0,1.080928734E-2,1.061982270E-3,1.790300488E-2,2.094005929E-2
4.025396958E0,-4.253929330E-3,2.476295829E-4,2.479044020E-2,2.515398896E-2
4.035358958E0,-5.143043009E-3,-1.097299453E-2,2.344265699E-2,2.638968865E-2
4.045320958E0,1.129547304E-3,-1.033020280E-2,1.736623049E-3,1.053588281E-2
4.055282958E0,2.280845793E-3,-9.764301963E-3,1.880230665E-2,2.130893207E-2
4.065244958E0,-2.518271300E-3,-4.766156841E-3,1.730366528E-2,1.812387303E-2
4.075206958E0,-3.996126505E-4,-3.104396425E-3,1.909992993E-2,1.935469686E-2
4.085168958E0,-4.863343961E-3,-9.042444918E-3,1.071560740E-2,1.484055816E-2
4.095130958E0,-3.479007661E-3,1.115933798E-2,-4.701746106E-3,1.259923549E-2
4.105092958E0,2.227650749E-2,9.370163083E-4,1.133190393E-3,2.232498390E-2
4.115054958E0,2.157358994E-2,-1.533346424E-2,1.625058174E-2,3.105827290E-2
4.125016958E0,2.294075804E-2,-1.418441327E-2,3.062186837E-2,4.080655317E-2
4.134978958E0,7.091163959E-3,-6.267484277E-6,8.768484592E-3,1.127701058E-2
4.144940458E0,4.463128316E-3,-3.491025288E-3,3.017514110E-2,3.070253918E-2
4.154902458E0,7.771211128E-3,-3.505679872E-3,2.672879219E-2,2.805547800E-2
4.164864458E0,6.237130148E-3,-7.442719806E-3,7.865089774E-3,1.249621974E-2
4.174826458E0,1.254473181E-2,-1.845417805E-3,6.216759682E-3,1.412175499E-2
4.184788458E0,4.258832083E-3,-5.277843028E-4,3.271224797E-2,3.299253513E-2
4.194750458E0,5.037999835E-3,-1.572005656E-3,-3.063356280E-3,6.102195984E-3
4.204712458E0,7.318668613E-3,2.642685659E-3,1.669497013E-2,1.841924878E-2
4.214674458E0,1.093126802E-2,-3.425043114E-3,1.534601748E-2,1.915003377E-2
4.224636458E0,-4.896182015E-3,7.916216366E-4,2.821807802E-2,2.865064031E-2
4.234598458E0,1.662804235E-3,1.099007936E-2,5.910365582E-3,1.258885156E-2
4.244560458E0,9.116777647E-3,-1.376609981E-2,5.009894371E-3,1.725456984E-2
4.254522458E0,8.346716476E-3,-1.510712218E-2,1.908004940E-2,2.572821605E-2
4.264484458E0,7.622671294E-3,-7.587273940E-3,2.186858654E-4,1.075730761E-2
4.274446458E0,4.526620855E-3,-1.399644356E-2,9.947283268E-3,1.775779190E-2
4.284408458E0,6.863951666E-3,-1.634497773E-3,2.087222099E-2,2.203259006E-2
4.294370458E0,1.300118008E-2,-1.045471195E-2,1.308840752E-2,2.120467158E-2
4.304332458E0,3.893125289E-3,-5.363504738E-3,3.150012016E-2,3.218976822E-2
4.314294458E0,1.203986585E-2,-8.373285905E-3,9.495878220E-3,1.747117597E-2
4.324256458E0,5.474189561E-3,-7.852737531E-3,3.539027274E-2,3.666201907E-2
4.334218458E0,-4.687669391E-3,-2.329932712E-3,1.188563526E-2,1.298734600E-2
4.344180458E0,-3.570400098E-3,-5.229183231E-3,1.562492967E-2,1.685913821E-2
4.354141458E0,5.882758044E-3,1.954139471E-3,4.847341776E-3,7.869067643E-3
4.364103458E0,1.026839476E-2,-3.152197413E-4,2.730123460E-2,2.917013379E-2
4.374065458E0,-3.273351265E-3,7.982381266E-3,2.954481125E-2,3.077871198E-2
4.384027458E0,-2.094205411E-4,-1.384878309E-2,1.801819503E-2,2.272637240E-2
4.393989458E0,1.246913599E-2,-3.034741469E-3,1.666982710E-2,2.103739869E-2
4.403951458E0,6.038677704E-3,-6.672842503E-3,1.127869427E-2,1.442918570E-2
4.413913458E0,1.226145819E-2,-8.335900269E-3,6.040173769E-3,1.600981853E-2
4.423875458E0,2.100800887E-2,1.117256731E-3,6.039589047E-3,2.188746982E-2
4.433837458E0,1.120444149E-2,-8.123079892E-3,1.127752483E-2,1.785235285E-2
4.443799458E0,1.266886979E-2,-6.433399022E-3,2.190425456E-2,2.610910287E-2
4.453761458E0,2.340249393E-2,-7.123315651E-3,1.082962811E-2,2.675255489E-2
4.463723458E0,4.303864780E-3,-1.361357884E-2,2.999153852E-2,3.321663987E-2
4.473685458E0,2.871758327E-3,-1.209394231E-2,1.637278855E-2,2.055671767E-2
4.483647458E0,-3.829735533E-3,-1.918087732E-3,3.560954332E-4,4.297992410E-3
4.493609458E0,-2.782108634E-3,-2.342997584E-3,4.017271042E-2,4.033703545E-2
4.503571458E0,-1.824967397E-3,-7.844953425E-4,-2.785613537E-3,3.421342093E-3
4.513533458E0,6.152828601E-3,-4.968543593E-3,3.104403734E-2,3.203554244E-2
4.523495458E0,-8.017012314E-4,3.883921634E-3,4.466512620E-2,4.484084155E-2
4.533457458E0,6.220170938E-3,2.582313158E-3,-2.933548093E-3,7.346058273E-3
4.543419458E0,-4.685099814E-3,3.217795864E-5,1.203181565E-2,1.291184663E-2
4.553381458E0,1.089628637E-2,-4.511145148E-3,4.600881636E-2,4.749621743E-2
4.563343458E0,9.355222990E-3,-2.365436275E-2,-4.724374831E-2,5.365650779E-2
4.573305458E0,9.913860492E-3,-9.878889117E-3,4.061885297E-2,4.296240562E-2
4.583267458E0,5.028799607E-4,1.179461969E-2,5.603386760E-2,5.726395253E-2
4.593229458E0,2.342923124E-2,-7.684721444E-3,-4.545099199E-2,5.170857272E-2
4.603191458E0,6.911370072E-3,1.870244717E-2,1.145574796E-1,1.162796831E-1
4.613153458E0,2.596080381E-3,-1.769181076E-2,-8.377188921E-2,8.565902885E-2
4.623115458E0,2.594253812E-2,-6.573165748E-3,2.191185594E-2,3.458831049E-2
4.633077458E0,-5.175451658E-3,7.979402840E-3,6.157468915E-2,6.230488354E-2
4.643039458E0,1.601160307E-2,-8.270027731E-3,-4.678941965E-2,5.013994997E-2
4.653001458E0,7.308501082E-3,7.498761714E-3,5.589294970E-2,5.686534482E-2
4.662963458E0,-5.898675718E-4,-7.302441448E-4,-6.899714470E-4,1.165015391E-3
4.672925458E0,1.104167076E-2,-1.689123558E-2,-4.585971236E-3,2.069452741E-2
4.682887458E0,-1.479298851E-2,1.670597021E-2,4.600355387E-2,5.112972636E-2
4.692849458E0,-2.633348387E-3,-2.592465386E-2,-6.983914375E-3,2.697771787E-2
4.702811458E0,-2.321063674E-3,5.242302921E-3,2.309884071E-2,2.379969577E-2
4.712773458E0,5.234331521E-4,8.094519898E-3,8.087868690E-2,8.128442182E-2
4.722735458E0,6.887749376E-3,-2.994057639E-2,-7.733702838E-2,8.321595499E-2
4.732697458E0,1.634395218E-2,5.078928061E-3,9.375308633E-2,9.530247363E-2
4.742659458E0,-1.078063255E-2,-1.099631030E-2,-3.288649499E-2,3.631339190E-2
4.752621458E0,7.515871671E-3,1.663167402E-3,4.270806313E-2,4.339623381E-2
4.762583458E0,1.192492466E-2,9.211867992E-3,7.069868445E-2,7.228669534E-2
4.772545458E0,-4.881092316E-3,-2.335772619E-2,-1.068303841E-1,1.094629591E-1
4.782507458E0,2.990471879E-2,-1.431453209E-3,8.252058506E-2,8.778375831E-2
4.792469458E0,8.723832193E-3,-1.352819122E-2,-1.163069665E-2,1.985926259E-2
4.802430458E0,1.220831933E-2,-2.108217258E-2,2.437704206E-3,2.448353454E-2
4.812392458E0,-5.422908794E-3,2.034118418E-3,3.206963897E-2,3.258845380E-2
4.822354458E0,-5.366781234E-3,-1.136022639E-2,-1.523024261E-2,1.974379331E-2
4.832316458E0,5.827098718E-3,-7.805210631E-3,5.497493684E-2,5.583117474E-2
4.842278458E0,9.406893190E-3,7.561381739E-3,3.985871494E-2,4.164590364E-2
4.852240458E0,1.375468860E-2,-4.038759559E-2,-7.061506927E-2,8.250355959E-2
4.862202458E0,-4.408678404E-3,1.996692583E-2,7.892045438E-2,8.152639261E-2
4.872164458E0,2.575344464E-4,-3.022809494E-3,-4.486685514E-2,4.496930500E-2
4.882126458E0,1.300140848E-2,-8.224602174E-3,5.691679716E-2,5.895932922E-2
4.892088458E0,-3.191572472E-3,1.253390875E-2,4.315128207E-2,4.504795387E-2
4.902050458E0,1.481446446E-2,-3.082197106E-2,-7.599918544E-2,8.333869716E-2
4.912012458E0,-3.407204538E-3,9.099966902E-3,9.269824862E-2,9.320613573E-2
4.921974458E0,-1.630099799E-3,-1.974383628E-2,-4.351264000E-2,4.781031412E-2
4.931936458E0,1.734409672E-2,-1.159407847E-2,7.443680942E-2,7.730510296E-2
4.941898458E0,5.880155348E-3,-1.748957019E-3,4.869444251E-2,4.907936235E-2
4.951860458E0,1.177064268E-2,-1.595357973E-2,-3.213805139E-2,3.776134376E-2
4.961822458E0,-5.828246463E-4,1.566174885E-2,4.300568640E-2,4.577247125E-2
4.971784458E0,-4.416385994E-3,-1.005282551E-2,-4.051418781E-2,4.197574514E-2
4.981746458E0,6.239859610E-3,-1.632451247E-3,7.653829873E-2,7.680958219E-2
4.991708458E0,-4.833702460E-3,1.281645717E-2,2.668961585E-2,2.999936412E-2
5.001670458E0,3.012674853E-2,-2.188554347E-2,-6.985668540E-2,7.916157202E-2
5.011632458E0,8.719244641E-3,7.930669952E-3,6.590747595E-2,6.695308909E-2
5.021594458E0,9.366115713E-3,-7.047776934E-3,-2.225216389E-2,2.515062784E-2
5.031556458E0,5.397081688E-3,-6.208098494E-3,-2.944716275E-2,3.057457067E-2
5.041518458E0,-1.109473767E-3,1.854442617E-2,9.764148474E-2,9.939308938E-2
5.051480458E0,3.652528353E-3,-1.133400528E-2,-7.749256432E-2,7.840215663E-2
5.061442458E0,5.137186657E-3,1.192269199E-2,1.040751761E-1,1.048817599E-1
5.071404458E0,-4.181214863E-3,2.227843981E-3,-3.842614710E-2,3.871711027E-2
5.081366458E0,3.927014700E-2,-2.402670247E-2,-4.598835111E-3,4.626636102E-2
5.091328458E0,-5.443637859E-3,1.144910406E-2,7.203828156E-2,7.314526087E-2
5.101290458E0,2.193645764E-2,-2.080185341E-2,-6.297568202E-2,6.985600765E-2
5.111252458E0,2.911827514E-2,3.219275940E-3,6.919010282E-2,7.513659569E-2
5.121214458E0,-4.365166897E-3,-2.657194063E-4,1.336088777E-2,1.405840001E-2
5.131176458E0,1.974258004E-2,-2.311289230E-2,-3.618373990E-2,4.725715068E-2
5.141138458E0,-1.689211495E-3,1.170241641E-2,1.161976236E-1,1.167976358E-1
5.151100792E0,1.057586580E-3,-1.994604031E-2,-8.647213340E-2,8.874904432E-2
5.161062792E0,1.823443809E-2,7.538303509E-3,1.265296537E-1,1.280588693E-1
5.171024792E0,-7.288332756E-3,1.116377821E-2,-6.162263632E-2,6.304838654E-2
5.180986792E0,3.087385824E-2,-2.522695312E-2,7.099455357E-2,8.142371229E-2
5.190948792E0,1.456431784E-3,2.070890095E-2,1.710719883E-2,2.690048371E-2
5.200910792E0,1.667346334E-2,-1.316765556E-2,4.554864049E-2,5.026002570E-2
5.210872792E0,5.417399621E-4,8.329029791E-3,-2.166334927E-2,2.321566112E-2
5.220834792E0,1.231023676E-2,-1.144281831E-2,5.558012366E-2,5.806574004E-2
5.230795792E0,1.181570735E-2,-1.868578261E-2,-7.315451503E-2,7.642219888E-2
5.240757792E0,3.417676992E-3,5.365569536E-3,1.181453311E-1,1.183164787E-1
5.250719792E0,-1.405500480E-3,-8.360824026E-3,-6.507132411E-2,6.562130775E-2
5.260681792E0,7.870051913E-3,1.217814222E-2,7.203886628E-2,7.348362484E-2
5.270643792E0,8.545477269E-4,1.264836799E-2,-2.076872528E-2,2.433210666E-2
5.280605792E0,3.774021389E-3,-1.015442088E-2,4.226367474E-3,1.162831385E-2
5.290567792E0,9.239316786E-3,1.123178864E-2,4.554103911E-2,4.780694818E-2
5.300529792E0,2.106422894E-2,-1.314788466E-2,-1.133716643E-2,2.729651909E-2
5.310491792E0,5.958090053E-3,1.181027927E-3,-4.005342722E-3,7.275742874E-3
5.320453792E0,-8.229076664E-4,4.086692110E-3,4.748991609E-2,4.767253255E-2
5.330415792E0,-3.071164369E-3,-7.457904294E-3,-2.645572722E-2,2.765787211E-2
5.340377792E0,-1.185235181E-3,1.147030022E-2,6.919361115E-2,7.014790370E-2
5.350339792E0,-6.188480628E-3,7.085710745E-3,-1.073899627E-2,1.427692649E-2
5.360301792E0,1.135264556E-2,-1.648421455E-3,3.865535796E-2,4.032166357E-2
5.370263792E0,-5.504289017E-3,8.837152831E-4,4.377225637E-3,7.087894932E-3
5.380225792E0,4.069975012E-3,-2.045631951E-2,-1.702592254E-2,2.692411080E-2
5.390187792E0,-5.711937121E-3,1.417699462E-2,3.087329865E-2,3.444958594E-2
5.400149792E0,9.951937058E-3,-6.134935208E-3,-1.358191252E-2,1.792056999E-2
5.410111792E0,5.544979699E-3,-3.093414623E-3,1.470808625E-2,1.602010659E-2
5.420073792E0,-2.854358292E-3,7.522442937E-4,6.626064777E-3,7.253824313E-3
5.430035792E0,3.048855414E-2,-1.352269119E-2,3.327241123E-2,4.711123496E-2
5.439997792E0,1.018830047E-2,6.206636690E-4,1.186926305E-2,1.565458704E-2
5.449959792E0,7.782512699E-3,-9.604252707E-3,3.088031530E-2,3.326263741E-2
5.459921792E0,8.615037437E-3,1.257571634E-2,2.887939811E-3,1.551475774E-2
5.469883792E0,7.612864645E-3,3.016267922E-3,3.118261635E-2,3.223986884E-2
5.479845792E0,-3.091967666E-3,-6.475791335E-5,-3.696609735E-3,4.819686833E-3
5.489807792E0,3.450083358E-3,9.236682113E-3,2.713926673E-2,2.887488823E-2
5.499769792E0,1.198958665E-2,-8.417925742E-3,5.882883668E-3,1.578670269E-2
5.509731792E0,2.097730871E-3,2.332070600E-3,-2.076112390E-2,2.099674483E-2
5.519693792E0,2.762960144E-3,1.368188163E-2,2.624171913E-2,2.972298196E-2
5.529655792E0,1.006253965E-2,5.361823663E-3,-1.357314169E-2,1.772664753E-2
5.539617792E0,3.686615793E-3,-1.307309512E-3,1.696569622E-2,1.741077374E-2
5.549579792E0,-3.901769347E-3,-1.327727258E-2,-9.881794453E-5,1.383905836E-2
5.559541792E0,1.161864134E-2,-8.733163755E-3,1.397426069E-2,2.016286035E-2
5.569503792E0,6.248446566E-3,-3.415121119E-3,1.711947799E-2,1.854137706E-2
5.579465792E0,-2.521138948E-3,6.367398575E-3,-6.905561686E-4,6.883078819E-3
5.589427792E0,4.902562561E-3,-6.502012443E-3,3.598318040E-2,3.689309634E-2
5.599389792E0,2.500242004E-3,-2.179348636E-3,7.243530750E-3,7.966775275E-3
5.609351792E0,8.680448594E-3,1.182824118E-2,2.610606372E-2,2.994635271E-2
5.619313792E0,-4.887627036E-3,-1.190895103E-3,2.754623294E-3,5.735423148E-3
5.629275792E0,8.512904167E-3,-1.601735093E-2,2.146571338E-2,2.810341472E-2
5.639237792E0,1.650052280E-2,2.596273385E-3,7.693181634E-3,1.839002262E-2
5.649199792E0,9.286980730E-3,-8.707235008E-4,2.206739187E-2,2.395779528E-2
5.659161792E0,2.245063575E-3,-6.271138787E-3,2.730708182E-2,2.810772509E-2
5.669122792E0,-2.769783799E-3,5.680131465E-3,7.997821569E-3,1.019317152E-2
5.679084792E0,1.155593224E-2,-1.154068608E-2,3.000206351E-2,3.415919818E-2
5.689046792E0,2.263933407E-3,-6.396835651E-3,-3.525286317E-3,7.646734234E-3
5.699008792E0,9.884715776E-3,-2.053101769E-2,2.836016536E-2,3.638034184E-2
5.708970792E0,2.106950514E-4,-1.320178868E-2,9.798763990E-3,1.644224415E-2
5.718932792E0,7.973088532E-3,-9.660678338E-3,1.938001156E-2,2.307560822E-2
5.728894792E0,6.344331766E-4,3.212515097E-3,3.404950619E-2,3.420660215E-2
5.738856792E0,-8.224017452E-4,-8.255537599E-4,1.848187923E-2,1.851857834E-2
5.748818792E0,1.135189296E-2,5.182971954E-3,1.608627498E-2,2.035919730E-2
5.758780792E0,-5.847592524E-3,1.239723008E-2,2.613705397E-3,1.395410721E-2
5.768742792E0,1.103167225E-2,1.353063975E-3,2.626335382E-2,2.851828061E-2
5.778704792E0,1.876453729E-4,9.632008709E-4,9.497047663E-3,9.547611273E-3
5.788666792E0,4.962493095E-3,2.650743853E-3,1.563311577E-2,1.661466489E-2
5.798628792E0,9.874776652E-3,-5.516573880E-3,1.203883231E-2,1.651899769E-2
5.808590792E0,-5.664315432E-3,-1.242204420E-2,6.351245642E-3,1.505755534E-2
5.818552792E0,8.894719355E-3,2.838786654E-3,2.475944996E-2,2.646138893E-2
5.828514792E0,-1.213350923E-3,-2.317470834E-3,-3.529964089E-3,4.393579179E-3
5.838476792E0,-3.384972556E-3,-1.931647791E-2,4.227303028E-2,4.660035887E-2
5.848438792E0,8.403128403E-3,-2.193392918E-2,1.876956224E-2,3.006669724E-2
5.858400792E0,5.696847421E-3,-1.054742686E-2,1.188388109E-2,1.687983749E-2
5.868362792E0,4.448165382E-3,-2.023931472E-2,9.038625956E-3,2.260780384E-2
5.878324792E0,4.983152496E-5,-9.013556018E-3,2.580376267E-2,2.733277965E-2
5.888286792E0,-4.163742880E-4,-1.183882099E-2,7.690842748E-3,1.412374285E-2
5.898248792E0,-1.533048581E-3,-1.843981583E-2,1.322991014E-2,2.274659464E-2
5.908210792E0,-2.680641169E-3,2.982354071E-3,1.562434494E-2,1.613072930E-2
5.918172792E0,-3.489153493E-3,3.287121914E-3,1.861753464E-2,1.922477460E-2
5.928134792E0,5.568553571E-3,1.292240141E-2,2.250827193E-2,2.654467089E-2
5.938096792E0,3.487473561E-3,2.611786779E-3,2.445364058E-2,2.483876888E-2
5.948058792E0,-5.700794292E-3,1.161001213E-3,1.502208173E-2,1.610931156E-2
5.958020792E0,-3.100904084E-3,-1.523747854E-3,3.794842958E-3,5.132080157E-3
5.967982792E0,-1.612887058E-3,1.480240915E-3,1.262647748E-2,1.281485276E-2
5.977944792E0,-3.296003515E-3,-9.695944358E-3,2.175632000E-2,2.404604824E-2
5.987906792E0,-3.205043909E-3,-1.072456095E-2,9.630948901E-3,1.476630254E-2
5.997868792E0,-4.527004579E-3,-1.253518783E-2,2.025884807E-2,2.424965215E-2
6.007830792E0,2.695328873E-3,-1.297431372E-2,5.439664721E-3,1.432436967E-2
6.017792792E0,-2.651551272E-3,-7.516248543E-3,1.771180093E-2,1.942247689E-2
6.027754792E0,3.384518026E-3,-1.145173531E-2,1.876079142E-2,2.223880614E-2
6.037716792E0,5.980197553E-3,8.311999775E-4,2.370051920E-2,2.445747875E-2
6.047678792E0,6.203822717E-3,-1.434062529E-2,-9.678896070E-3,1.837993415E-2
6.057640792E0,9.535521657E-3,2.995894030E-3,1.891223431E-2,2.139098316E-2
6.067602792E0,-2.190124872E-4,1.972375475E-3,1.352285564E-2,1.366769388E-2
6.077564792E0,-4.834162700E-3,3.944056593E-3,1.801234782E-2,1.906225027E-2
6.087526792E0,1.018122214E-2,2.132625729E-3,1.726039588E-2,2.015258403E-2
6.097488792E0,-4.625639798E-3,1.314331653E-2,1.471334875E-2,2.026390743E-2
6.107450792E0,6.043302943E-5,-7.314501330E-4,1.770595372E-2,1.772115878E-2
6.117412792E0,7.133552846E-3,-1.287301071E-3,2.264451206E-2,2.377643048E-2
6.127373792E0,7.800859481E-4,1.009083241E-2,6.324348450E-3,1.193443824E-2
6.137335792E0,-5.287208852E-3,3.862981293E-3,1.111263335E-2,1.289836508E-2
6.147297958E0,5.666035336E-3,2.565977499E-3,1.679963529E-2,1.791412691E-2
6.157259958E0,1.063977176E-2,3.454790823E-3,9.764265418E-3,1.484860943E-2
6.167221958E0,1.174918842E-2,-2.169667840E-2,1.485368192E-2,2.879967272E-2
6.177183958E0,-2.867004038E-3,-1.106572771E-2,-4.755540490E-3,1.238084033E-2
6.187145958E0,8.942462099E-3,-1.333877798E-3,-7.139450312E-4,9.069541106E-3
6.197107958E0,1.949913487E-2,-1.115495257E-2,-2.062897682E-3,2.255891785E-2
6.207069958E0,7.200253360E-3,1.325200165E-2,2.353387356E-2,2.795178708E-2
6.217031958E0,8.401922415E-3,-1.406935103E-2,3.026811182E-2,3.441943538E-2
6.226993958E0,9.236451422E-3,2.968101483E-3,2.532896876E-2,2.712339064E-2
6.236955958E0,1.314963883E-2,8.356785793E-3,2.353270411E-2,2.822298767E-2
6.246917958E0,6.443437503E-3,-1.471225239E-2,9.461964369E-3,1.864127214E-2
6.256879958E0,6.904427645E-3,-4.199762642E-4,3.116916776E-2,3.192748847E-2
6.266841958E0,4.309279164E-3,-3.302891124E-3,1.769835234E-2,1.851244587E-2
6.276803958E0,8.071899625E-3,-4.188616388E-3,1.305741727E-2,1.591214054E-2
6.286765958E0,9.435019211E-4,8.648397401E-5,2.263924956E-2,2.265906653E-2
6.296727958E0,-8.904555696E-5,-2.049449086E-3,1.455722809E-2,1.470105643E-2
6.306689958E0,-3.700430982E-4,7.588955015E-4,1.231306672E-2,1.234197984E-2
6.316651958E0,5.602875128E-3,-1.409434788E-2,9.914538860E-3,1.812018026E-2
6.326613958E0,8.566682562E-3,-2.685260698E-3,1.335679471E-2,1.609355897E-2
6.336575958E0,-3.849626344E-4,-8.905857615E-4,-4.007096887E-3,4.122883055E-3
6.346537958E0,2.117109594E-2,-1.351340873E-2,2.293862700E-2,3.401482218E-2
6.356499958E0,2.096602541E-3,-6.609381940E-3,1.889644682E-2,2.012847174E-2
6.366461958E0,1.012372528E-2,-1.853033803E-2,1.201310456E-2,2.429357780E-2
6.376423958E0,4.233062079E-3,-1.474479580E-2,8.120613098E-3,1.735719375E-2
6.386385958E0,-1.093682859E-3,-1.554681452E-2,-3.553937674E-3,1.598530753E-2
6.396347958E0,6.814123567E-3,-2.387710512E-3,2.039684236E-2,2.163711209E-2
6.406309958E0,-5.500222233E-3,-6.443905737E-3,6.625480056E-3,1.075515466E-2
6.416271958E0,6.356707992E-3,-9.869095031E-3,2.294155061E-2,2.577055525E-2
6.426233958E0,1.160161475E-2,-7.553414907E-3,1.874792755E-2,2.330528543E-2
6.436195958E0,8.047267087E-3,3.489819299E-3,2.758073151E-2,2.894190901E-2
6.446157958E0,-3.222455364E-4,5.486880988E-4,6.472867727E-3,6.504069298E-3
6.456119958E0,9.911181279E-3,-1.108558998E-3,8.269717097E-3,1.295564118E-2
6.466081958E0,4.777060985E-4,1.361220840E-2,3.146971464E-2,3.429086409E-2
6.476043958E0,8.429447726E-3,6.920179725E-3,3.131885648E-2,3.316346254E-2
6.486005958E0,2.427874716E-3,2.654599361E-3,2.577861965E-2,2.602842109E-2
6.495967958E0,2.565653161E-3,1.808324531E-3,2.742402613E-2,2.760307633E-2
6.505929958E0,1.028185592E-2,9.381948877E-3,7.213709950E-3,1.567721714E-2
6.515891958E0,1.682802512E-2,1.028525233E-3,2.008577049E-2,2.622362427E-2
6.525853958E0,-3.367686725E-3,-2.166846558E-2,1.604300559E-2,2.717060439E-2
6.535815958E0,1.428285206E-4,-1.552702535E-2,1.050452292E-2,1.874710426E-2
6.545777958E0,-3.482159675E-3,-5.534078982E-3,1.035600364E-2,1.224737840E-2
6.555739958E0,4.050700899E-3,-1.293011243E-2,1.724343896E-2,2.193016581E-2
6.565701958E0,-3.948113099E-3,-2.153708596E-2,-4.160293937E-3,2.228770321E-2
6.575663958E0,7.157469329E-3,2.951637916E-3,1.200784206E-2,1.428740020E-2
6.585624958E0,4.227619143E-3,-1.241851760E-2,7.818896770E-3,1.527178738E-2
6.595586958E0,5.732593095E-3,-1.720183237E-2,2.758131623E-2,3.300749408E-2
6.605548958E0,8.735701356E-3,-8.493683729E-3,1.830412388E-2,2.198854457E-2
6.615510958E0,-3.792623986E-3,4.763032235E-3,7.528290153E-3,9.682232459E-3
6.625472958E0,-4.158416432E-3,3.481011931E-3,5.734364390E-3,7.892579189E-3
6.635434958E0,1.664356260E-3,-1.097522378E-3,3.178254068E-2,3.184500792E-2
6.645396958E0,-8.840578934E-4,-5.608941615E-4,2.879052043E-2,2.880955097E-2
6.655358958E0,-2.002058089E-3,-7.294401526E-4,2.459982097E-2,2.469193211E-2
6.665320958E0,-1.636616247E-3,2.196725830E-3,5.740796328E-3,6.360885126E-3
6.675282958E0,-5.777741137E-3,1.869829930E-4,1.516884685E-2,1.623302713E-2
6.685244958E0,7.083777281E-3,8.523321804E-3,2.025533974E-2,2.308908190E-2
6.695206958E0,4.608739974E-3,-1.310397573E-3,5.135609508E-3,7.023682151E-3
6.705168958E0,-3.691482001E-3,-1.311468344E-2,6.931289434E-3,1.528609611E-2
6.715130958E0,6.683245293E-3,-6.217983942E-3,1.157163978E-2,1.473879029E-2
6.725092958E0,1.428571057E-2,-1.767616946E-2,8.725799918E-3,2.434477516E-2
6.735054958E0,1.544000005E-2,-1.295450628E-3,-4.298872948E-3,1.607955542E-2
6.745016958E0,2.034757043E-2,-9.263762031E-3,1.890404820E-2,2.927804549E-2
6.754978958E0,1.225892744E-2,-7.700563744E-3,9.022838473E-3,1.705847584E-2
6.764940958E0,9.796137311E-3,2.781100217E-3,7.525951266E-3,1.266249451E-2
6.774902958E0,2.646795841E-3,2.417001408E-3,4.982997179E-3,6.138215124E-3
6.784864958E0,-4.840785357E-3,-9.071406908E-4,8.576111197E-3,9.889681005E-3
6.794826958E0,2.965695217E-3,2.039764635E-3,1.800767004E-2,1.836388217E-2
6.804788958E0,3.112330138E-3,-1.517955456E-3,2.833560705E-2,2.854640809E-2
6.814750958E0,-4.344167170E-3,-5.387606230E-3,6.929535270E-3,9.793699421E-3
6.824712958E0,-2.380412912E-3,4.425757527E-3,2.129731357E-2,2.188216764E-2
6.834674958E0,-5.645088142E-3,1.145725362E-3,2.219486117E-2,2.293014543E-2
6.844636958E0,1.192007444E-2,-1.235818164E-2,2.323975861E-2,2.889462249E-2
6.854598958E0,1.095121137E-2,-2.426137682E-3,1.111380279E-2,1.579024341E-2
6.864560958E0,-3.895611498E-3,4.674172830E-3,1.066298246E-2,1.227692452E-2
6.874522958E0,9.584093518E-3,-2.896016277E-3,1.185873806E-2,1.552003310E-2
6.884484958E0,7.144922940E-3,-1.116832808E-2,2.622593164E-2,2.938674814E-2
6.894446958E0,1.236418303E-2,-7.240936048E-3,1.275336206E-2,1.918208593E-2
6.904408958E0,3.240828412E-3,4.576104060E-3,2.038339376E-2,2.114063477E-2
6.914370958E0,1.073140174E-2,-1.333179787E-2,1.409529805E-2,2.217154133E-2
6.924332958E0,1.776135951E-2,-1.171928197E-2,1.185055196E-2,2.435658111E-2
6.934294958E0,2.156836399E-2,-2.653192375E-3,1.574421287E-2,2.683493980E-2
6.944256958E0,1.458689700E-2,-8.259630650E-3,9.305843711E-3,1.917283990E-2
6.954218958E0,7.778188958E-3,-9.147822708E-3,1.170027852E-2,1.676542279E-2
6.964180958E0,-4.768141697E-3,-1.261664685E-3,2.367245257E-2,2.418081851E-2
6.974142958E0,8.419442363E-4,-1.844303180E-3,1.948058367E-2,1.958579752E-2
6.984104958E0,-1.554522252E-3,-1.533998754E-3,6.906731129E-3,7.243799175E-3
6.994066958E0,2.149445610E-3,1.344594648E-2,1.274400651E-2,1.865002132E-2
7.004028958E0,-1.913354000E-3,-6.174294278E-4,1.843217790E-2,1.854150277E-2
7.013990958E0,2.581854060E-4,-6.704709828E-3,9.749062657E-3,1.183486444E-2
7.023952958E0,1.075817673E-2,-9.330931921E-3,2.097396255E-2,2.535176053E-2
7.033914958E0,8.807157300E-3,-1.144945124E-2,1.124478042E-2,1.830576522E-2
7.043875958E0,1.249289030E-2,-5.138661023E-3,2.890746474E-2,3.190798745E-2
7.053837958E0,-5.248858198E-3,9.320827201E-5,9.597619772E-3,1.093953863E-2
7.063799958E0,5.704253514E-3,-1.133479100E-2,5.108127594E-3,1.367877782E-2
7.073761958E0,8.524123512E-3,-1.255738897E-2,3.190357804E-2,3.532968994E-2
7.083723958E0,5.630167464E-3,-9.459241759E-3,2.037871599E-2,2.316178115E-2
7.093685958E0,7.087078902E-3,-1.750674639E-3,1.289603412E-2,1.481888137E-2
7.103647958E0,4.937514521E-3,-3.926240858E-3,1.813747823E-2,1.920319071E-2
7.113609958E0,7.525983243E-4,-2.498204615E-3,2.277958274E-2,2.292851544E-2
7.123571958E0,9.378397150E-4,3.779110294E-3,1.993608177E-2,2.031276875E-2
7.133533958E0,8.497830456E-3,-2.558650207E-3,2.472729027E-2,2.627163294E-2
7.143495542E0,6.444902733E-3,4.734746329E-3,-8.951502442E-3,1.200349907E-2
7.153457542E0,-9.154147294E-4,-1.056365289E-2,1.754457057E-2,2.049977324E-2
7.163419542E0,-4.259183829E-3,2.169737276E-3,1.589740992E-2,1.660048339E-2
7.173381542E0,8.163555872E-3,-1.196234342E-2,1.904262722E-2,2.392410825E-2
7.183343542E0,2.767935988E-3,4.647092912E-3,7.517180443E-3,9.260936453E-3
7.193305542E0,8.942128625E-4,-3.529397640E-3,1.290831327E-2,1.341196540E-2
7.203267542E0,7.526205940E-3,1.814847831E-3,1.769952178E-2,1.931865730E-2
7.213229542E0,1.897774939E-2,-1.369750466E-2,2.503309965E-2,3.426999685E-2
7.223191542E0,1.249933366E-2,3.504674882E-3,8.267962933E-3,1.539075368E-2
7.233153542E0,1.566643919E-2,-8.637251146E-4,-2.637094259E-4,1.569244661E-2
7.243115542E0,1.572550977E-2,-2.049227988E-2,1.051504791E-2,2.788891222E-2
7.253077542E0,3.527799934E-3,-1.046439640E-2,1.275979400E-2,1.687487207E-2
7.263039542E0,1.157189102E-2,-1.360075152E-2,2.668084502E-2,3.210539822E-2
7.273001542E0,4.962044276E-3,-2.190823797E-3,5.877036452E-3,7.997571492E-3
7.282963542E0,-6.055031635E-4,-2.284744699E-3,1.665696323E-2,1.682382586E-2
7.292925542E0,3.342638486E-3,-5.103486367E-3,1.022385657E-2,1.190571494E-2
7.302887542E0,4.203999590E-4,-1.689786851E-2,3.147907019E-2,3.573019110E-2
7.312849542E0,1.155092670E-2,-1.066692933E-2,3.207490146E-2,3.572123448E-2
7.322811542E0,7.424022420E-3,-1.101750646E-2,1.980218053E-2,2.384592022E-2
7.332773542E0,8.357432184E-3,-2.014784234E-2,5.881129503E-3,2.259136799E-2
7.342735542E0,1.461998630E-2,-1.041204555E-2,1.246743321E-2,2.185386883E-2
7.352697542E0,8.980837878E-3,-1.595284883E-3,1.171489656E-2,1.484719449E-2
7.362659542E0,2.652668181E-3,1.340254918E-2,3.326948762E-2,3.596559160E-2
7.372621542E0,9.939559690E-3,-1.755261049E-4,3.027454376E-2,3.186492831E-2
7.382583542E0,5.997829421E-3,9.208451025E-3,2.623002470E-2,2.843912312E-2
7.392545542E0,1.857589036E-2,-1.839351319E-3,7.069283724E-3,1.996050320E-2
7.402507542E0,-2.860849615E-3,-1.281088404E-3,1.559861720E-2,1.591045274E-2
7.412469542E0,5.941908569E-3,-2.244362365E-3,2.308071434E-2,2.393873043E-2
7.422431542E0,4.013371223E-4,-1.317103598E-2,1.305157006E-2,1.854671780E-2
7.432393542E0,4.214136286E-3,-5.505975801E-3,2.427763939E-2,2.524833635E-2
7.442355542E0,4.306870614E-3,3.316339720E-3,2.008693993E-2,2.080943054E-2
7.452317542E0,-6.911332385E-3,-1.163904721E-2,1.933791161E-2,2.360484612E-2
7.462279542E0,-1.671689262E-3,-2.078831345E-2,5.567134023E-3,2.158567817E-2
7.472241542E0,-1.345494571E-3,-5.230992213E-3,2.203289330E-2,2.268528206E-2
7.482203542E0,8.262706149E-3,-5.266952589E-3,7.364568114E-3,1.225764928E-2
7.492164542E0,-4.118953437E-3,-1.095110402E-2,1.948935449E-2,2.273163864E-2
7.502126542E0,1.110493604E-3,-1.033668956E-2,7.962738276E-3,1.309524906E-2
7.512088542E0,1.810002522E-2,-1.002159772E-2,1.873974144E-2,2.791453462E-2
7.522050542E0,3.479477037E-3,-1.130677918E-2,1.140323997E-2,1.643118674E-2
7.532012542E0,7.835105663E-3,-8.753318377E-3,1.484608054E-2,1.893186654E-2
7.541974542E0,-6.143996108E-4,-1.066135621E-2,9.905183315E-3,1.456552984E-2
7.551936542E0,-2.911337810E-3,-2.187183905E-2,2.098507226E-2,3.045039391E-2
7.561898542E0,-6.040214882E-3,-9.108865634E-4,2.158382714E-2,2.243157382E-2
7.571860542E0,1.190574876E-2,-4.127366804E-3,2.308246851E-2,2.629795359E-2
7.581822542E0,-1.437488861E-3,-7.635604832E-3,1.589916408E-2,1.769610844E-2
7.591784542E0,3.523670338E-3,-1.186091250E-2,2.263574123E-2,2.579678816E-2
7.601746542E0,1.197828622E-2,-2.063312469E-2,8.717029095E-3,2.540062541E-2
7.611708542E0,4.626086333E-3,-1.461712550E-3,9.465472698E-3,1.063637399E-2
7.621670542E0,1.458355769E-2,-1.002207281E-2,2.144115508E-2,2.780009405E-2
7.631632542E0,-2.965820840E-3,-1.127025235E-2,2.668142974E-2,2.911551776E-2
7.641594542E0,8.129759651E-3,1.770207994E-3,1.246041656E-2,1.498294394E-2
7.651556542E0,5.374025158E-4,-1.673432920E-2,1.216337800E-2,2.069479016E-2
7.661518542E0,8.447719133E-4,1.388412220E-2,2.668493807E-2,3.009266371E-2
7.671480542E0,6.880012094E-3,7.104860377E-3,2.533890903E-2,2.720062349E-2
7.681442542E0,-4.098700600E-3,9.099875540E-3,8.273225427E-3,1.296353888E-2
7.691404542E0,-6.008614793E-3,1.097734340E-2,2.982606232E-2,3.234500755E-2
7.701366542E0,1.791055830E-3,1.377344538E-2,2.638088286E-2,2.981386689E-2
7.711328542E0,7.498792548E-3,-1.384405050E-2,1.859473050E-2,2.436500823E-2
7.721290542E0,6.786374417E-3,-8.907429054E-3,1.454904199E-2,1.835951505E-2
7.731252542E0,8.896800141E-3,-6.441731304E-3,2.397767723E-2,2.637381201E-2
7.741214542E0,-2.175351516E-3,-5.155782402E-4,2.337658346E-2,2.348324146E-2
7.751176542E0,1.247132527E-2,-8.225442711E-3,2.202763081E-2,2.661594223E-2
7.761138542E0,1.389850841E-2,-1.103208795E-2,1.219729185E-3,1.778660282E-2
7.771100542E0,1.060504706E-2,-1.907591980E-2,1.349361956E-2,2.565999821E-2
7.781062542E0,8.239787804E-3,-1.024854278E-2,2.442089617E-2,2.773638228E-2
7.791024542E0,9.621219911E-3,-3.157280836E-2,5.408089757E-3,3.344633814E-2
7.800986542E0,-1.509449584E-4,-1.234968491E-2,4.358514547E-3,1.309710467E-2
7.810948542E0,5.888846229E-3,-5.675819144E-3,1.063023806E-3,8.247633144E-3
7.820910542E0,2.672326018E-3,-2.215928452E-2,1.962442517E-2,2.972025034E-2
7.830872542E0,-8.929817495E-4,-1.426550684E-2,1.513493299E-2,2.081749982E-2
7.840834542E0,-4.411060688E-3,-8.627603240E-3,1.932738662E-2,2.162038084E-2
7.850796542E0,8.967792420E-3,-1.209675629E-2,2.891214252E-2,3.259853982E-2
7.860758542E0,-3.714307841E-3,9.164596908E-4,6.160041690E-3,7.251351234E-3
7.870720542E0,-5.024654022E-3,-1.102846999E-2,1.693646014E-2,2.082589687E-2
7.880682542E0,2.319571035E-3,-3.596567530E-3,9.004712105E-3,9.969982341E-3
7.890644542E0,-4.447916419E-3,3.990669865E-3,1.529280782E-2,1.641887260E-2
7.900606542E0,-2.439024397E-3,1.661358420E-3,2.038397849E-2,2.059649317E-2
7.910568542E0,8.529480795E-3,2.692094631E-3,2.188145041E-2,2.363889355E-2
7.920530542E0,5.644664448E-3,-7.858603019E-3,4.818690419E-3,1.080923936E-2
7.930492542E0,4.230465093E-3,1.975225993E-3,2.353094995E-2,2.398966357E-2
7.940454542E0,1.991054816E-2,-5.415015053E-3,1.529923975E-2,2.568694325E-2
7.950416542E0,1.831346229E-2,-8.505853247E-3,1.619971097E-2,2.588750811E-2
7.960378542E0,1.252562100E-2,-9.161052033E-3,1.215986967E-2,1.971493054E-2
7.970340542E0,3.860145622E-3,-5.078672245E-4,1.695049345E-2,1.739189126E-2
7.980301542E0,-4.002079930E-3,1.320540665E-2,2.398761749E-2,2.767318560E-2
7.990263542E0,1.267330317E-2,-6.378654465E-3,2.877707183E-2,3.208457120E-2
8.000225542E0,9.951833133E-3,-8.590181060E-3,1.620204985E-2,2.086472173E-2
8.010187542E0,1.189119240E-2,1.645041034E-3,1.799714506E-2,2.163339656E-2
8.020149542E0,2.621433543E-3,4.510523882E-3,2.607975125E-2,2.659643143E-2
8.030111542E0,-2.430810886E-3,-1.219509915E-4,2.039099514E-2,2.053573463E-2
8.040073542E0,7.089531992E-4,2.958307397E-3,2.248429835E-2,2.268915753E-2
8.050035542E0,1.036615861E-2,6.727842875E-3,2.113651514E-2,2.448414561E-2
8.059997542E0,-4.695804102E-3,-7.470128629E-3,-3.562708497E-3,9.515581419E-3
8.069959542E0,-3.625205182E-4,-7.106705904E-3,1.230312645E-2,1.421279742E-2
8.079921542E0,6.671691332E-3,-2.272703089E-3,1.215226829E-2,1.404828350E-2
8.089883542E0,1.552583307E-2,8.503678814E-4,1.125413597E-2,1.919453553E-2
8.099845542E0,6.843304827E-3,-1.182897208E-2,2.121954560E-3,1.382960927E-2
8.109807542E0,1.630209206E-2,-1.148729369E-2,1.244930685E-2,2.350960150E-2
8.119769542E0,1.108746405E-2,-2.724272590E-3,1.289661884E-2,1.722429383E-2
8.129731542E0,9.657404126E-3,-1.030904319E-2,-1.280540228E-4,1.412650784E-2
8.139693542E0,-5.515683093E-4,-1.673962824E-2,7.506070733E-3,1.835375926E-2
8.149657042E0,2.992463359E-3,-6.296647266E-3,2.112832904E-2,2.224879529E-2
8.159619042E0,7.096283699E-3,1.456727799E-2,2.112657487E-2,2.662508209E-2
8.169581042E0,-9.813066828E-4,4.285442624E-3,2.052665055E-2,2.099217388E-2
8.179543042E0,-1.974006300E-4,-7.380410414E-3,3.175330460E-2,3.260033402E-2
8.189505042E0,-2.596410429E-3,1.430093732E-2,1.768314958E-2,2.288999638E-2
8.199467042E0,-1.993897111E-3,-2.337241732E-3,1.618684709E-2,1.647581086E-2
8.209429042E0,-8.094739169E-4,3.371742088E-3,2.711353898E-2,2.733437193E-2
8.219391042E0,5.784626462E-3,1.301778411E-2,3.265026748E-2,3.562252901E-2
8.229353042E0,1.207392474E-2,5.722048692E-4,-3.573818207E-3,1.260473140E-2
8.239315042E0,9.943364948E-3,-1.166113872E-2,1.993023455E-2,2.514094095E-2
8.249277042E0,1.177826005E-2,-1.008630082E-2,3.160770893E-2,3.520664906E-2
8.259239042E0,1.357768471E-2,-4.368454814E-3,2.113242209E-2,2.549541494E-2
8.269201042E0,1.561074903E-2,-6.802668963E-3,2.248079002E-2,2.820208698E-2
8.279163042E0,2.185128244E-2,3.512221444E-3,3.026518822E-2,3.749394433E-2
8.289125042E0,1.119789534E-2,3.358074222E-3,1.544600487E-2,1.937133421E-2
8.299087042E0,-3.820253222E-3,-4.265415911E-3,2.727141380E-2,2.786607469E-2
8.309049042E0,-3.029777046E-3,1.103999997E-2,1.065479636E-2,1.563924019E-2
8.319011042E0,-4.701218486E-3,1.716243675E-2,4.657658100E-2,4.986009013E-2
8.328973042E0,2.867830871E-4,1.033076925E-2,4.731976211E-2,4.843518271E-2
8.338935042E0,2.624583273E-3,1.201164275E-2,2.096577644E-2,2.430497441E-2
8.348897042E0,-2.331292875E-3,2.159617938E-2,1.452506840E-2,2.613058557E-2
8.358859042E0,-3.551796359E-3,6.187231243E-3,1.797434092E-3,7.357163661E-3
8.368821042E0,1.275482386E-2,5.148747470E-3,-1.212770998E-2,1.833784289E-2
8.378783042E0,1.105976173E-2,-2.048672503E-2,5.382946730E-3,2.389561356E-2
8.388745042E0,3.257125241E-2,-1.551251695E-2,2.837653756E-3,3.618807738E-2
8.398707042E0,1.750902018E-2,-3.055575829E-2,-1.347666264E-2,3.770730152E-2
8.408669042E0,1.485598997E-2,-2.497038826E-2,-8.534011245E-3,3.028283468E-2
8.418631042E0,3.241825636E-2,-3.733430749E-2,2.140607178E-2,5.387962296E-2
8.428593042E0,1.782208490E-2,-1.478141399E-2,9.132766128E-3,2.489024562E-2
8.438554042E0,2.249110259E-2,-1.997436276E-2,1.167981327E-2,3.226829560E-2
8.448516042E0,7.356219843E-3,-8.483268376E-3,1.033787727E-2,1.526274940E-2
8.458478042E0,6.139941886E-4,9.499167278E-3,2.770527720E-2,2.929494074E-2
8.468440042E0,-6.116754021E-3,9.910445809E-3,1.453325450E-2,1.862383157E-2
8.478402042E0,-2.179423325E-2,2.806641586E-2,3.848228037E-2,5.237936813E-2
8.488364042E0,-1.253828616E-2,1.581863696E-2,2.965006113E-2,3.586870530E-2
8.498326042E0,-9.913288333E-3,3.108275687E-2,3.234094977E-2,4.593852515E-2
8.508288042E0,-4.075454492E-3,2.786879824E-2,3.458394170E-2,4.460188638E-2
8.518250042E0,-1.233210900E-3,1.245310754E-2,3.607673585E-2,3.818548895E-2
8.528212042E0,1.890599195E-2,-8.929648474E-3,2.978571653E-2,3.639181313E-2
8.538174042E0,2.246094375E-2,-1.200864606E-2,3.232867062E-2,4.115634238E-2
8.548136042E0,2.324018802E-2,-1.618739527E-2,-3.040552139E-4,2.832367480E-2
8.558098042E0,2.636645668E-2,-2.158912618E-2,-1.332638919E-2,3.659061432E-2
8.568060042E0,3.149392120E-2,-2.331478570E-2,-1.152837038E-2,4.084543583E-2
8.578022042E0,2.465569843E-2,-2.687795101E-2,-1.046651602E-3,3.648867214E-2
8.587984042E0,1.960878616E-2,-2.491918858E-2,-7.180380821E-3,3.251197199E-2
8.597946042E0,7.559226720E-3,-2.001052413E-2,1.805620193E-3,2.146679410E-2
8.607908042E0,-3.904198454E-3,-5.756949261E-4,4.354421496E-3,5.876663746E-3
8.617870042E0,3.812242993E-3,-1.278310977E-3,1.543431044E-2,1.594945812E-2
8.627832042E0,2.741478479E-3,-2.368579153E-3,2.636275649E-2,2.661053929E-2
8.637794042E0,2.971184975E-4,1.518927556E-2,3.414890885E-2,3.737579895E-2
8.647756042E0,4.196499850E-3,1.432436273E-2,2.696326554E-2,3.081907959E-2
8.657718042E0,-4.304940576E-3,1.898623813E-2,2.516583145E-2,3.181711527E-2
8.667680042E0,-1.652297520E-3,2.105039662E-2,3.938333631E-2,4.468664748E-2
8.677642042E0,1.182775011E-2,2.034814602E-2,3.847994149E-2,4.510707944E-2
8.687604042E0,1.398918479E-2,1.177079229E-2,1.497588873E-2,2.363315648E-2
8.697566042E0,8.729624591E-3,-1.205142209E-2,1.587109745E-2,2.175626011E-2
8.707528042E0,2.251399581E-2,-1.781803753E-2,1.871284425E-2,3.427146056E-2
8.717490042E0,2.664870818E-2,-1.787088174E-2,1.152544677E-2,3.409337157E-2
8.727452042E0,3.246993570E-2,-1.954543294E-2,1.257385254E-2,3.993021964E-2
8.737414042E0,3.005074615E-2,-2.781843910E-2,6.437784433E-3,4.145308151E-2
8.747376042E0,7.149379158E-3,-2.398650287E-2,8.235218525E-3,2.634928398E-2
8.757338042E0,2.032859439E-2,-4.443134721E-3,1.051914096E-3,2.083505986E-2
8.767300042E0,1.814635412E-2,-4.020618573E-3,5.692849159E-3,1.943872612E-2
8.777262042E0,1.444362765E-3,-8.441844508E-3,7.042386532E-3,1.108810762E-2
8.787224042E0,3.379552461E-3,5.632878654E-4,6.746517420E-3,7.566648224E-3
8.797186042E0,-1.922304123E-3,6.197701413E-3,2.111780405E-2,2.209227023E-2
8.807148042E0,-7.236614591E-5,1.107804341E-2,1.468294322E-2,1.839339839E-2
8.817110042E0,-3.375023153E-3,2.023927817E-2,3.384251475E-2,3.957694995E-2
8.827072042E0,1.490722506E-3,2.183310125E-2,3.054643929E-2,3.757647558E-2
8.837034042E0,-3.205123851E-3,2.495821875E-2,3.428514898E-2,4.252830754E-2
8.846996042E0,3.434552833E-3,2.362667983E-2,8.234633803E-3,2.525520436E-2
8.856958042E0,1.799557133E-2,8.472944386E-3,5.088247061E-3,2.053099200E-2
8.866920042E0,2.384672700E-2,-2.913795467E-3,5.982871056E-3,2.475785409E-2
8.876882042E0,1.721181032E-2,-9.886106774E-3,2.929455042E-4,1.985112941E-2
8.886844042E0,3.189942104E-2,-1.673246540E-2,-2.103243470E-3,3.608285041E-2
8.896806042E0,2.301107309E-2,-2.240154197E-2,1.339012384E-3,3.214236335E-2
8.906767042E0,1.870677662E-2,-3.147221798E-2,-3.598376513E-3,3.678848067E-2
8.916730042E0,1.764878462E-2,-2.539942771E-2,3.738124967E-3,3.115419883E-2
8.926691042E0,1.745909615E-2,-1.482788108E-2,1.422159791E-2,2.696182380E-2
8.936653042E0,1.236573734E-2,-1.325435881E-2,1.048113406E-2,2.093904627E-2
8.946615042E0,-3.097681263E-3,-1.182431258E-2,2.215860844E-2,2.530640087E-2
8.956577042E0,4.147953114E-3,9.953696933E-3,1.886721075E-2,2.173138834E-2
8.966539042E0,4.967041818E-3,-3.552768230E-3,2.186215460E-2,2.269906321E-2
8.976501042E0,-2.139086217E-3,1.154322596E-2,2.634930789E-2,2.884627848E-2
8.986463042E0,-2.641628135E-3,6.763949431E-3,1.871518314E-2,2.007454336E-2
8.996425042E0,1.351273265E-3,6.643807422E-3,2.619903445E-2,2.706206797E-2
9.006387042E0,-1.843861212E-3,1.068397762E-2,3.293093383E-2,3.466977942E-2
9.016349042E0,1.185420876E-2,5.985648483E-3,2.424664915E-2,2.764507638E-2
9.026311042E0,5.426718621E-3,5.264156889E-3,2.005887330E-2,2.143639477E-2
9.036273042E0,1.224117566E-2,2.508948874E-3,9.731521010E-3,1.583804619E-2
9.046235042E0,1.940971359E-2,-1.530095737E-2,1.077934206E-2,2.696387385E-2
9.056197042E0,1.767450209E-2,-1.938982392E-2,6.289849877E-3,2.697990933E-2
9.066159042E0,1.993497856E-2,-2.799358148E-2,8.836312294E-3,3.548414279E-2
9.076121042E0,6.972732717E-3,-1.852354065E-2,1.362927496E-2,2.403118174E-2
9.086083042E0,2.397903396E-2,-6.619596295E-3,9.074878693E-4,2.489250207E-2
9.096045042E0,1.016788889E-2,-1.676318156E-2,4.613453150E-4,1.961129929E-2
9.106007042E0,3.384725876E-3,-6.468975674E-3,1.857426524E-2,1.995763876E-2
9.115969042E0,2.100968538E-3,-1.855102256E-3,1.827547252E-2,1.848914192E-2
9.125931042E0,-6.374378689E-4,-3.086672053E-3,2.411450207E-2,2.431960283E-2
9.135893042E0,4.002606408E-3,1.987945514E-2,2.755968153E-2,3.421621897E-2
9.145853833E0,-1.543020825E-3,1.322961777E-2,3.190240860E-2,3.457119284E-2
9.155815833E0,3.635412685E-3,-1.256310828E-3,1.693236709E-2,1.736374376E-2
9.165777833E0,1.861480518E-3,8.846380468E-3,2.456473768E-2,2.617536808E-2
9.175739833E0,2.016214746E-2,9.080159459E-3,1.707796276E-2,2.793954720E-2
9.185701833E0,1.153774762E-2,3.736918978E-4,1.333632946E-2,1.763850757E-2
9.195663833E0,1.258457053E-2,1.336033959E-3,1.872336924E-2,2.259913622E-2
9.205625833E0,2.073441857E-2,-7.572619356E-3,-3.133522868E-3,2.229528297E-2
9.215587833E0,1.388027012E-2,-2.202775871E-2,1.048639655E-2,2.806864025E-2
9.225549833E0,1.752433829E-2,-3.116796177E-2,7.493206859E-3,3.653344252E-2
9.235511833E0,2.652499845E-2,-1.676725633E-2,4.652044773E-3,3.172314531E-2
9.245473833E0,1.178163476E-2,-9.493904784E-3,-4.356175661E-4,1.513707067E-2
9.255435833E0,1.513310117E-2,-2.321077835E-2,4.955515265E-3,2.814796821E-2
9.265397833E0,1.845504600E-3,-1.612364234E-2,5.557193756E-3,1.715401213E-2
9.275359833E0,3.733973672E-3,-1.203671269E-2,3.325194597E-2,3.556004672E-2
9.285321833E0,1.404543341E-2,-1.105671935E-4,1.723700702E-2,2.223512617E-2
9.295283833E0,8.645126615E-3,8.370179571E-3,1.589097798E-2,1.993292004E-2
9.305245833E0,-1.662725435E-3,8.255848233E-3,1.798545063E-2,1.985950956E-2
9.315207833E0,-5.057384726E-5,2.158013608E-2,2.786490619E-2,3.524425951E-2
9.325169833E0,2.320693654E-4,6.330488026E-3,1.903327167E-2,2.005976982E-2
9.335131833E0,3.980744445E-3,3.702511769E-3,2.202529192E-2,2.268630432E-2
9.345093833E0,4.206516633E-3,-4.580836650E-3,1.199322402E-2,1.350985822E-2
9.355055833E0,1.189025707E-2,-2.969873920E-3,1.678033948E-2,2.077927230E-2
9.365017833E0,7.924847861E-3,-1.518777721E-3,1.258613169E-2,1.495060569E-2
9.374979833E0,2.256705472E-2,-5.951771177E-3,2.351165414E-2,3.312843823E-2
9.384941833E0,2.386285938E-2,-1.057302671E-2,9.590018392E-3,2.780635547E-2
9.394903833E0,3.042944701E-2,-3.024560004E-2,1.508581638E-3,4.293044824E-2
9.404864833E0,6.893984884E-3,-1.321989678E-2,1.049107432E-2,1.823061543E-2
9.414826833E0,6.640914649E-3,-1.731720524E-2,3.007807732E-3,1.878920573E-2
9.424788833E0,4.730129085E-3,-7.244426105E-3,6.154194474E-3,1.061743568E-2
9.434750833E0,3.129281353E-3,-7.000469305E-3,1.229260147E-2,1.448816838E-2
9.444712833E0,1.941400078E-3,-1.329653185E-2,2.531610489E-2,2.866133214E-2
9.454674833E0,2.832781838E-3,-1.104966614E-2,2.292108536E-2,2.560265472E-2
9.464636833E0,1.820328453E-3,6.665844116E-3,7.651081681E-3,1.030951620E-2
9.474598833E0,-8.837518282E-5,7.993874699E-4,1.588513076E-2,1.590547735E-2
9.484560833E0,-2.589412043E-3,7.966082152E-3,1.857952774E-2,2.038044088E-2
9.494522833E0,2.677160249E-3,8.034202214E-3,2.007466078E-2,2.178778551E-2
9.504484833E0,-3.552674584E-4,-2.140208837E-3,3.803730726E-2,3.809912666E-2
9.514446833E0,8.015423744E-3,-3.806153666E-3,5.555439591E-3,1.046884581E-2
9.524408833E0,1.022010270E-2,-4.520628601E-4,1.109626114E-2,1.509244418E-2
9.534370833E0,1.527990397E-2,-3.403591141E-3,4.059721828E-3,1.617223668E-2
9.544332833E0,7.000646320E-3,-9.005625732E-4,1.139563859E-2,1.340450076E-2
9.554294833E0,1.672455681E-2,-1.921882940E-2,4.960777760E-3,2.595541408E-2
9.564256833E0,1.325492982E-2,-1.284901885E-2,1.020163715E-2,2.109179581E-2
9.574218833E0,1.639769517E-2,4.125941545E-5,7.656344175E-3,1.809711898E-2
9.584180833E0,1.239016089E-2,-2.253818410E-2,2.891155779E-2,3.869578793E-2
9.594142833E0,-2.774419317E-3,-6.767074037E-3,2.277665913E-2,2.392210055E-2
9.604104833E0,1.277609197E-2,-4.403465018E-3,2.232876241E-2,2.609966783E-2
9.614066833E0,1.216298971E-2,-8.168158270E-3,1.948526144E-2,2.437893643E-2
9.624028833E0,-2.893764186E-3,9.139801059E-3,6.613200903E-3,1.164664161E-2
9.633990833E0,-9.261600160E-3,1.044583149E-2,2.697203636E-2,3.037076520E-2
9.643952833E0,4.162779003E-3,-3.172388580E-3,2.697203636E-2,2.747514375E-2
9.653914833E0,1.918012358E-3,-1.956496630E-3,2.742051780E-2,2.755705803E-2
9.663876833E0,5.037275786E-3,5.965548679E-3,3.191176414E-2,3.285304566E-2
9.673838833E0,1.022915561E-3,6.163257658E-3,1.484608054E-2,1.610708567E-2
9.683800833E0,1.261044446E-2,-5.125851966E-3,2.172942281E-2,2.564108975E-2
9.693762833E0,1.845174552E-2,-6.908339113E-3,1.259782612E-2,2.338583513E-2
9.703724833E0,1.591146379E-2,-7.546288613E-3,2.367596090E-2,2.950715636E-2
9.713686833E0,8.616612302E-3,-1.607750416E-2,2.322689474E-2,2.953338427E-2
9.723648833E0,1.732103334E-2,-2.128591150E-2,7.958060503E-3,2.857339587E-2
9.733610833E0,1.253491145E-2,-1.281247376E-2,-4.315245152E-3,1.843650806E-2
9.743572833E0,9.286515922E-3,-1.662063740E-2,9.158493876E-3,2.112730403E-2
9.753534833E0,-2.523017594E-3,-2.013020933E-2,7.663360834E-3,2.168681730E-2
9.763496833E0,1.792184160E-3,-6.502067260E-3,8.112426996E-3,1.054989453E-2
9.773458833E0,3.491393023E-4,-1.216167865E-2,3.221172631E-2,3.443288599E-2
9.783420833E0,-9.547177259E-3,-1.698122788E-3,2.128444970E-2,2.338931409E-2
9.793382833E0,-1.956299058E-3,3.514669966E-3,2.353094995E-2,2.387227715E-2
9.803344833E0,-6.822649995E-4,-1.174212266E-3,3.161531031E-2,3.164446407E-2
9.813306833E0,4.251069676E-3,-3.890353572E-3,3.071776271E-2,3.125359803E-2
9.823268833E0,8.001989995E-3,-5.517158601E-3,3.191468775E-2,3.336192706E-2
9.833230833E0,1.526933330E-2,-4.549499229E-3,2.248254418E-2,2.755567593E-2
9.843192833E0,1.147666706E-2,7.679970581E-3,2.068335593E-2,2.486960087E-2
9.853154833E0,1.848992258E-2,-5.361714028E-4,1.574362814E-2,2.429046200E-2
9.863116833E0,2.477527399E-2,-5.220467225E-3,2.233110130E-2,3.376011795E-2
9.873078833E0,2.222669652E-2,-2.818266582E-3,9.756664038E-3,2.443688110E-2
9.883040833E0,2.208903342E-2,-8.392526899E-3,5.267171860E-3,2.420956432E-2
9.893001833E0,1.981611792E-2,-2.110793687E-2,1.320067406E-2,3.181951168E-2
9.902964833E0,4.188182415E-4,-1.620495519E-2,1.738844991E-2,2.377255080E-2
9.912926833E0,6.074261209E-3,-1.408959702E-3,1.634121358E-2,1.749048536E-2
9.922888833E0,7.888494625E-3,2.003822532E-3,6.163550019E-3,1.020945645E-2
9.932849833E0,5.653597440E-3,3.048116975E-3,2.143179953E-2,2.237356056E-2
9.942811833E0,2.227875958E-3,-1.135227783E-2,3.161121726E-2,3.366165028E-2
9.952773833E0,1.177765134E-3,-9.713084009E-3,3.191117942E-2,3.337745502E-2
9.962735833E0,5.300684856E-3,6.565875001E-4,3.101187766E-2,3.146847506E-2
9.972697833E0,7.419602748E-4,3.315097187E-3,2.562425315E-2,2.584845690E-2
9.982659833E0,4.952699009E-3,1.160069313E-2,1.694055319E-2,2.112078717E-2
9.992621833E0,-2.951585383E-3,6.239947546E-3,1.274868429E-2,1.449750850E-2
1.000258383E1,2.270462418E-2,5.759324692E-4,5.862418413E-3,2.345633404E-2
1.001254583E1,2.028285363E-2,1.017287616E-3,2.098097920E-2,2.919983757E-2
1.002250783E1,-2.563809918E-3,-2.753654849E-3,1.020397604E-2,1.087551669E-2
1.003246983E1,1.497376911E-2,-1.157631755E-2,4.066738486E-3,1.935880294E-2
1.004243183E1,1.844182467E-2,-7.735427767E-3,7.211371064E-3,2.125891842E-2
1.005239383E1,1.784527391E-2,-6.823170763E-3,7.809541225E-3,2.063972854E-2
1.006235583E1,1.310070951E-2,-9.030914940E-3,1.559627831E-2,2.228070716E-2
1.007231783E1,5.983487754E-3,-9.399782885E-3,1.290363550E-2,1.704880797E-2
1.008227983E1,3.412994652E-3,1.143605746E-3,7.068114281E-3,7.931872798E-3
1.009224183E1,1.341547701E-4,2.502005305E-3,1.290597439E-2,1.314694653E-2
1.010220383E1,4.664425567E-3,-3.056613710E-3,9.164341092E-3,1.072776309E-2
1.011216583E1,4.526545481E-3,-8.118840661E-3,3.730465114E-2,3.844531421E-2
1.012212783E1,-6.814073317E-4,-6.352140997E-3,2.907294095E-2,2.976659044E-2
1.013208983E1,9.232856298E-4,7.573021352E-3,1.485192776E-2,1.669679211E-2
1.014205183E1,-3.145934497E-3,2.534256354E-3,-4.608775377E-3,6.128635216E-3
1.015201404E1,-9.423918638E-4,3.906853683E-3,2.951966822E-2,2.979198584E-2
1.016197604E1,4.541619192E-3,5.369753949E-3,3.940029323E-2,4.002303923E-2
1.017193804E1,1.343360452E-2,-8.139251098E-3,3.954705834E-2,4.255207354E-2
1.018190004E1,2.443323928E-2,1.594663616E-3,1.544717431E-2,2.895067060E-2
1.019186204E1,1.825050308E-2,-9.416136816E-3,2.023545921E-2,2.883085682E-2
1.020182404E1,7.541758163E-3,3.523057066E-3,1.095300436E-2,1.375712004E-2
1.021178604E1,1.905479673E-2,-1.056460306E-2,8.109503388E-3,2.324779907E-2
1.022174804E1,1.171065162E-2,-1.567388183E-2,6.314408183E-3,2.055922381E-2
1.023171004E1,8.185026117E-3,-1.793909317E-2,9.757833481E-3,2.200047796E-2
1.024167204E1,1.060661051E-2,-8.202565480E-3,1.544542015E-2,2.045344153E-2
1.025163404E1,1.415988123E-2,-1.713616082E-2,1.948584616E-2,2.956092767E-2
1.026159604E1,3.719827293E-3,-1.258443234E-2,2.247786641E-2,2.602805277E-2
1.027155804E1,2.260036786E-3,-1.078787534E-2,2.023253560E-2,2.303999821E-2
1.028152004E1,4.511332442E-3,1.891482901E-3,2.247903585E-2,2.300514901E-2
1.029148204E1,-1.513069833E-4,9.757011216E-3,2.637269676E-2,2.812012262E-2
1.030144404E1,-1.946428455E-3,6.802248694E-3,3.056339622E-2,3.137164897E-2
1.031140604E1,6.148233055E-4,-1.644218769E-3,9.604636431E-3,9.763734123E-3
1.032136804E1,9.865760291E-4,-1.629509367E-2,2.292634785E-2,2.814464133E-2
1.033133004E1,6.094764151E-3,-1.704792269E-3,1.543957293E-2,1.668630813E-2
1.034129204E1,1.817004334E-2,3.480810933E-3,5.408089757E-3,1.927469726E-2
1.035125404E1,1.133128381E-2,-7.353403587E-3,1.019988298E-2,1.692655163E-2
1.036121604E1,2.399272467E-2,-9.597985223E-3,-4.470196366E-3,2.622507985E-2
1.037117804E1,2.912555218E-2,1.017726157E-3,7.202015519E-3,3.002003638E-2
1.038114004E1,7.047249314E-3,-2.123219021E-2,2.246851087E-2,3.170652306E-2
1.039110204E1,1.643375034E-2,-9.215376321E-3,-2.830052376E-3,1.905257220E-2
1.040106404E1,1.407600110E-2,8.312748950E-3,1.139037609E-2,1.992426334E-2
1.041102604E1,6.657522112E-3,-1.774677459E-2,7.049403191E-3,2.022287552E-2
1.042098804E1,3.565476788E-3,-2.081623390E-2,9.746139050E-3,2.325973871E-2
1.043094904E1,-3.658232815E-4,-6.413390581E-3,6.002751589E-3,8.791952687E-3
1.044091104E1,-2.974615647E-3,-7.726254947E-3,1.588162243E-2,1.791003308E-2
1.045087304E1,-1.973898949E-3,1.019790955E-3,2.306492686E-2,2.317168751E-2
1.046083504E1,-3.450950162E-3,-1.057487223E-3,2.276496470E-2,2.304931570E-2
1.047079704E1,4.242449601E-3,2.980983630E-3,2.201652110E-2,2.261883824E-2
1.048075904E1,4.296891518E-3,-7.949472405E-4,1.573017955E-2,1.632586189E-2
1.049072104E1,1.323429326E-2,8.820013180E-3,1.528052866E-2,2.205524216E-2
1.050068304E1,1.067768730E-2,-6.649782546E-3,2.470799446E-2,2.772575705E-2
1.051064504E1,7.804670449E-3,-8.324845377E-3,2.964889169E-2,3.176905270E-2
1.052060704E1,1.559043224E-2,-3.786656857E-3,3.144749522E-2,3.530361601E-2
1.053056904E1,1.562664043E-2,-2.466958556E-3,1.198913097E-2,1.984986240E-2
1.054053104E1,2.174055993E-2,-6.047354881E-3,1.722765148E-2,2.839039314E-2
1.055049304E1,1.654046545E-2,-2.205982704E-2,1.064076304E-2,2.955416729E-2
1.056045504E1,3.525258908E-3,-1.293210413E-2,2.231706798E-2,2.603302308E-2
1.057041704E1,1.276724691E-3,3.929657824E-3,1.124127209E-2,1.197657859E-2
1.058037904E1,4.929184522E-3,-4.640587885E-3,1.109275281E-2,1.299542539E-2
1.059034104E1,-2.316785613E-3,-7.915759552E-3,-1.327902675E-3,8.354045151E-3
1.060030304E1,1.326850176E-2,2.581838071E-3,6.174659729E-4,1.353145561E-2
1.061026504E1,1.392206058E-3,-4.637463279E-3,2.322104752E-2,2.372048379E-2
1.062022704E1,-7.320615782E-3,-8.200756498E-3,3.205209732E-2,3.388481615E-2
1.063018904E1,7.308048836E-4,-1.354301026E-2,2.606337905E-2,2.938106414E-2
1.064015104E1,3.821761849E-3,-6.706025451E-4,3.249999404E-2,3.273079871E-2
1.065011304E1,-5.073658715E-4,-7.406229526E-4,2.321695447E-2,2.323430475E-2
1.066007504E1,4.742916443E-3,1.354757840E-2,3.234621227E-2,3.538798645E-2
1.067003704E1,2.005488531E-2,1.276792528E-2,3.039733529E-2,3.859036581E-2
1.067999904E1,3.228557938E-2,1.489614733E-3,7.042971253E-3,3.307840734E-2
1.068996104E1,2.265087090E-2,3.989865873E-3,2.126106083E-2,3.132113807E-2
1.069992304E1,3.085281512E-2,-5.608539619E-3,1.093312383E-2,3.320971415E-2
1.070988504E1,2.255500398E-2,-1.001845485E-2,1.212829471E-2,2.749896679E-2
1.071984704E1,3.403773410E-2,-2.119361686E-2,5.091755390E-3,4.041859363E-2
1.072980904E1,1.922207050E-2,-2.881259367E-2,2.140724123E-2,4.071760706E-2
1.073977104E1,4.277221119E-3,-2.369501917E-2,2.095759034E-2,3.192129613E-2
1.074973304E1,4.185751023E-3,-2.036397005E-2,-1.137224972E-2,2.369683210E-2
1.075969504E1,6.006301031E-4,-2.296417203E-2,-2.941149473E-4,2.297390818E-2
1.076965704E1,2.179093963E-3,-1.872658521E-2,1.527643561E-2,2.426526178E-2
1.077961904E1,7.925718091E-6,-1.892257657E-2,1.408009529E-2,2.358628945E-2
1.078958104E1,-1.252800215E-4,-8.775647432E-3,2.231355965E-2,2.397754423E-2
1.079954304E1,6.249211729E-5,7.624970209E-3,2.156277716E-2,2.287132342E-2
1.080950504E1,1.790139918E-3,2.334442377E-2,5.845461488E-3,2.413164193E-2
1.081946704E1,3.935744867E-3,1.042028647E-2,3.862436771E-2,4.019843578E-2
1.082942904E1,7.192961471E-3,1.077111941E-2,2.949218631E-2,3.221094164E-2
1.083939104E1,7.483608060E-3,1.105006814E-2,1.616638184E-2,2.096330835E-2
1.084935304E1,2.399896475E-2,1.051998150E-2,2.679252684E-2,3.747612325E-2
1.085931504E1,3.368276014E-2,-4.948937148E-4,1.032559812E-2,3.523338228E-2
1.086927704E1,3.217838804E-2,2.561263181E-3,1.017415524E-2,3.384556338E-2
1.087923904E1,2.496589778E-2,-1.632443938E-2,3.247426629E-2,4.409491291E-2
1.088920104E1,1.783989607E-2,-2.134697836E-2,2.004834831E-2,3.429127654E-2
1.089916304E1,1.874060825E-2,-2.079138324E-2,1.121788323E-2,3.015514746E-2
1.090912504E1,5.308746477E-4,-2.229168741E-2,2.386248708E-3,2.242532806E-2
1.091908704E1,3.176593550E-3,-1.603651883E-2,4.408800602E-4,1.635405326E-2
1.092904904E1,5.680198845E-3,-1.254611481E-2,1.406547725E-2,1.968520526E-2
1.093901104E1,2.465894180E-3,-8.412224706E-3,2.679018795E-2,2.818794652E-2
1.094897304E1,-9.250477888E-8,-1.904825516E-2,2.349703610E-2,3.024808639E-2
1.095893404E1,3.949177475E-4,-5.132375266E-3,1.825793087E-2,1.896969361E-2
1.096889604E1,-1.122393601E-3,2.019299380E-4,1.556528807E-2,1.560700918E-2
1.097885804E1,1.922076629E-2,3.104798421E-3,3.158432007E-2,3.710319264E-2
1.098882004E1,8.451004765E-3,9.644379225E-3,3.921961427E-2,4.126271532E-2
1.099878204E1,2.536699851E-2,1.089798572E-2,2.754272461E-2,3.899810745E-2
1.100874404E1,2.943519651E-2,6.871519927E-3,1.751299560E-2,3.493355972E-2
1.101870604E1,2.904040667E-2,7.215902656E-3,2.784034789E-2,4.087174380E-2
1.102866804E1,1.783654306E-2,-2.106824890E-4,9.875947237E-3,2.038923709E-2
1.103863004E1,2.003290115E-2,-4.759706631E-3,1.675928950E-2,2.654893068E-2
1.104859204E1,3.369032726E-2,-1.029632550E-2,1.301707149E-2,3.755657891E-2
1.105855404E1,2.155142991E-2,-7.945964076E-3,1.271886349E-2,2.625589390E-2
1.106851604E1,9.707323587E-3,-4.378066175E-3,1.900637448E-2,2.178627700E-2
1.107847804E1,2.361139941E-3,-1.437262053E-2,1.192831993E-3,1.461403609E-2
1.108844004E1,5.116043034E-3,-5.418249294E-3,6.582210660E-3,9.942676647E-3
1.109840204E1,-1.462787205E-3,-2.279931709E-2,2.289886594E-2,3.234666393E-2
1.110836404E1,1.010783730E-3,-4.549206868E-3,1.960571408E-2,2.015194759E-2
1.111832604E1,-1.338171847E-3,5.001580361E-3,1.661310911E-2,1.740120411E-2
1.112828804E1,-1.493398292E-3,1.002808448E-2,6.585134268E-3,1.208952894E-2
1.113825004E1,1.857553062E-4,5.264138617E-4,1.511973023E-2,1.513003169E-2
1.114821221E1,1.443066099E-2,-1.326806322E-3,2.080907106E-2,2.535787511E-2
1.115817421E1,3.646555514E-3,4.376677461E-3,2.230537355E-2,2.302134579E-2
1.116813621E1,2.360175836E-2,1.778010372E-2,3.936813354E-2,4.922423209E-2
1.117809821E1,1.887813202E-2,-1.245456934E-4,1.451805174E-2,2.381539852E-2
1.118806021E1,2.182105050E-2,9.057519771E-4,2.170369506E-2,3.079007975E-2
1.119802221E1,3.991293416E-2,-1.245155437E-2,3.607439697E-2,5.522178588E-2
1.120798421E1,2.489242387E-2,-7.210914250E-3,2.544649780E-2,3.632016383E-2
1.121794621E1,1.966426847E-2,-1.497703990E-2,1.885960937E-2,3.109147864E-2
1.122790821E1,1.327536653E-2,-7.791944761E-3,1.649499536E-3,1.548129866E-2
1.123787021E1,8.556315175E-3,-2.051946944E-2,7.038293481E-3,2.331944962E-2
1.124783221E1,2.431780474E-3,-1.568731215E-2,-8.922851086E-4,1.589973243E-2
1.125779421E1,-2.152411473E-3,-1.594384046E-2,1.108573616E-2,1.953797507E-2
1.126775621E1,1.422399047E-2,-6.124538127E-3,2.126573861E-2,2.630710001E-2
1.127771821E1,-2.947818954E-5,-8.415093496E-3,2.545819223E-2,2.681294872E-2
1.128768021E1,2.235210103E-3,-1.088709528E-2,1.498232067E-2,1.865462249E-2
1.129764221E1,3.886768726E-3,4.432701096E-3,2.406713963E-3,6.367737607E-3
1.130760421E1,1.430937581E-2,8.728979342E-4,1.213589609E-2,1.878297529E-2
1.131756621E1,1.496515932E-2,-3.079564031E-3,2.680305183E-2,3.085195772E-2
1.132752821E1,3.419831783E-2,1.326524924E-2,2.934659064E-2,4.697567628E-2
1.133749021E1,3.142418402E-2,1.516091656E-3,3.248829961E-2,4.522463363E-2
1.134745221E1,3.187369786E-2,-3.763669990E-3,2.245623171E-2,3.917116503E-2
1.135741421E1,1.922189919E-2,2.852966152E-3,1.257560670E-2,2.314663493E-2
1.136737621E1,3.551562927E-2,-1.265017698E-2,1.197568238E-2,3.955760191E-2
1.137733821E1,3.193867733E-2,-9.142121673E-3,8.531087637E-3,3.429922673E-2
1.138730021E1,3.559168191E-2,-1.249434868E-2,-3.083587646E-2,4.872091796E-2
1.139726221E1,2.732662431E-2,-2.497471886E-2,-2.843559444E-2,4.668044568E-2
1.140722421E1,-1.259803169E-3,-3.001167487E-2,6.444216371E-3,3.072158292E-2
1.141718621E1,1.557295112E-3,-4.586152134E-2,9.146740973E-2,1.023327482E-1
1.142714821E1,2.638565199E-3,-2.964660762E-2,3.398518682E-2,4.517605884E-2
1.143711021E1,-9.760995774E-3,-1.232629605E-2,1.803281307E-3,1.582613143E-2
1.144707221E1,-5.516300934E-3,1.299958466E-2,-3.771161735E-2,4.026890687E-2
1.145703421E1,5.446430133E-3,3.085327193E-2,1.288609385E-2,3.387682696E-2
1.146699621E1,5.259089683E-3,2.695791168E-2,5.375111461E-2,6.036198595E-2
1.147695821E1,-7.622816332E-4,2.004144128E-2,6.452577889E-2,6.757082642E-2
1.148692021E1,2.243792262E-2,1.028357126E-2,7.042386532E-3,2.566724405E-2
1.149688221E1,2.088062180E-2,1.260142582E-2,-8.527579308E-3,2.583632923E-2
1.150684321E1,3.335951190E-2,-1.257133093E-3,-6.284002662E-3,3.396948789E-2
1.151680521E1,1.919918185E-2,-1.578304203E-2,1.616579711E-2,2.964870985E-2
1.152676721E1,2.476893341E-2,-2.928132109E-2,2.858645260E-2,4.783389070E-2
1.153672921E1,2.260408861E-2,-2.072302563E-2,2.738835812E-2,4.111582145E-2
1.154669121E1,2.071443753E-2,-4.182827644E-2,-2.499860108E-2,5.294924634E-2
1.155665321E1,1.494803223E-2,-1.889176905E-2,-1.586466551E-2,2.884493399E-2
1.156661521E1,1.428696681E-2,-2.477940358E-2,-1.361407220E-2,3.167774021E-2
1.157657721E1,1.193336315E-2,-2.875901856E-2,3.144457161E-2,4.425208909E-2
1.158653921E1,9.603461277E-3,-1.612894138E-2,2.905189097E-2,3.458874944E-2
1.159650121E1,-6.302339165E-4,-3.401142620E-3,6.153025031E-3,7.058660138E-3
1.160646321E1,4.648383411E-3,-2.240470313E-3,-7.314866781E-4,5.211741390E-3
1.161642521E1,-1.744922212E-3,2.160750836E-2,1.813981712E-2,2.826627206E-2
1.162638721E1,-2.690869914E-2,-3.184576370E-2,-4.322671115E-1,4.342730552E-1
1.163634921E1,1.146609571E-1,2.890022881E-3,5.342513233E-1,5.464247101E-1
1.164631121E1,-8.912903510E-2,8.813082403E-2,5.342296886E-1,5.487370839E-1
1.165627321E1,2.746394251E-2,-6.462439584E-2,-9.497509593E-1,9.523431447E-1
1.166623521E1,6.173152701E-2,6.887897613E-2,4.385832739E-1,4.482302789E-1
1.167619721E1,-8.675552236E-2,3.987042764E-2,-4.340727317E-1,4.444494438E-1
1.168615921E1,1.612303752E-1,-6.304489844E-2,5.391904664E-1,5.663004964E-1
1.169612121E1,-3.494483368E-2,-2.039207323E-2,2.259481072E-2,4.634116445E-2
1.170608321E1,4.890267648E-2,-5.399445014E-2,8.921623170E-2,1.151798959E-1
1.171604521E1,7.176789123E-3,-1.317843636E-2,-4.758610278E-1,4.760975691E-1
1.172600721E1,8.120948399E-2,-1.323325401E-2,9.732515037E-2,1.274452204E-1
1.173596921E1,-2.766387389E-2,-9.348711111E-3,2.094326466E-1,2.114585581E-1
1.174593121E1,1.153475093E-2,-4.343644347E-2,-6.014446020E-2,7.508083106E-2
1.175589321E1,5.012600536E-2,-2.136936223E-2,3.868137807E-1,3.906330336E-1
1.176585521E1,-9.013970805E-2,3.816139614E-2,-4.601115525E-1,4.704084394E-1
1.177581721E1,8.707164659E-2,1.427634247E-3,1.386550248E-1,1.637337035E-1
1.178577921E1,-4.104672298E-2,7.002429949E-2,1.886405325E-1,2.053618428E-1
1.179574121E1,1.689142516E-2,-2.517255574E-2,-9.649893880E-2,1.011485195E-1
1.180570321E1,3.375197884E-2,3.123736091E-2,3.951951796E-1,3.978620348E-1
1.181566521E1,1.993592759E-3,-1.376080077E-2,-3.608620834E-1,3.611298621E-1
1.182562721E1,5.550902974E-2,9.693422746E-3,2.529944032E-1,2.591937169E-1
1.183558921E1,-1.642202507E-3,1.956609920E-2,-1.818443137E-1,1.829012944E-1
1.184555121E1,6.828959049E-2,-3.008973520E-2,2.280028188E-1,2.399044512E-1
1.185551321E1,-1.836377918E-2,1.006042689E-2,-1.114999706E-1,1.134490371E-1
1.186547521E1,7.252103317E-2,-4.831314923E-2,1.148445779E-1,1.441621924E-1
1.187543721E1,-8.631358249E-4,-5.806464214E-2,-8.751410723E-2,1.050284087E-1
1.188539921E1,6.002379286E-2,-3.107360233E-1,-1.326587636E0,1.363816149E0
1.189536121E1,1.838673042E-1,-1.039828632E-2,2.084301415E0,2.092421492E0
1.190532321E1,-3.171606149E-1,2.611190180E-1,1.809906203E-1,4.489227126E-1
1.191528521E1,1.398557322E-1,-7.135826865E-2,-1.494854715E0,1.503077592E0
1.192524721E1,-4.583633720E-2,3.091866573E-1,6.191482168E-1,6.935718227E-1
1.193520921E1,-9.855283725E-2,6.706463993E-2,-8.573246062E-1,8.655725319E-1
1.194517121E1,2.660226941E-1,-2.109903814E-2,1.602439975E0,1.624508269E0
1.195513321E1,-1.051104165E-1,1.622618789E-2,-2.510180444E-1,2.726197855E-1
1.196509521E1,1.226263814E-1,-1.568286096E-1,-4.686309457E-1,5.091634369E-1
1.197505721E1,-2.252629780E-2,5.872563332E-2,-1.071812171E-1,1.242736794E-1
1.198501921E1,5.089777387E-2,-3.881374441E-2,-2.834531343E-1,2.905903809E-1
1.199498121E1,-3.278486993E-2,2.962473538E-2,7.691064942E-1,7.703747608E-1
1.200494321E1,-7.172221671E-2,-5.283142067E-2,-5.797157639E-1,5.865199079E-1
1.201490521E1,1.141986433E-1,-9.206614634E-2,7.020681667E-1,7.172288451E-1
1.202486721E1,-1.748334291E-1,-1.175713538E-1,-1.269460924E0,1.286825858E0
1.203482921E1,3.710170159E-1,-3.760278239E-1,-2.748624051E-1,5.954829067E-1
1.204479121E1,-9.857931646E-3,1.559733081E-1,2.173045776E0,2.178658486E0
1.205475321E1,-2.356688657E-1,1.483037711E-1,-9.434283650E-1,9.836619860E-1
1.206471521E1,2.796634990E-1,-2.387211671E-2,-2.347715557E-1,3.659224426E-1
1.207467621E1,-1.855626495E-1,2.211782776E-1,-6.691717315E-1,7.287963595E-1
1.208463821E1,9.244848115E-2,3.264231892E-2,2.590854478E-1,2.770153640E-1
1.209460021E1,1.204201447E-1,8.950015057E-2,1.518473373E0,1.525867843E0
1.210456221E1,-8.977576456E-2,7.943773197E-2,-2.665318769E-1,2.922486657E-1
1.211452421E1,4.857382998E-2,-3.695697570E-1,-2.566605490E0,2.593531369E0
1.212448621E1,1.516017469E-1,1.191788996E-1,2.218134241E0,2.226500890E0
1.213444821E1,-2.895687189E-1,3.132485718E-1,6.444315773E-1,7.728303621E-1
1.214441021E1,1.091399361E-2,-2.311169911E-1,-1.912651137E0,1.926595067E0
1.215437217E1,7.938256714E-2,1.583933245E-1,1.358883562E0,1.370384826E0
1.216433417E1,-2.446453285E-1,-7.865277981E-2,-1.492350937E0,1.514314669E0
1.217429617E1,2.337215054E-1,-1.568538805E-1,7.674692738E-1,8.174582363E-1
1.218425817E1,4.526348823E-2,-6.503247667E-2,4.965116394E-1,5.027940079E-1
1.219422017E1,4.031634636E-2,-1.992708071E-1,-6.719041353E-1,7.019896220E-1
1.220418217E1,9.807359397E-2,-5.852419674E-2,-1.230119687E-1,1.678554613E-1
1.221414417E1,1.035776694E-1,-1.219021124E-1,-6.821806169E-1,7.006845600E-1
1.222410617E1,3.415222761E-3,8.727005906E-2,1.035319698E0,1.038996922E0
1.223406817E1,-1.034431835E-1,7.251548745E-2,-4.395539117E-1,4.573473837E-1
1.224403017E1,1.484723628E-1,7.144763969E-2,8.155901045E-1,8.320673207E-1
1.225399217E1,-2.422850999E-1,2.054888824E-1,-7.081194502E-1,7.761191314E-1
1.226395417E1,8.847047416E-2,4.174641542E-2,-1.293111742E-2,9.867624738E-2
1.227391617E1,4.173876722E-3,7.193597356E-2,4.803972977E-1,4.857713137E-1
1.228387817E1,-3.887474732E-2,-7.679038681E-4,-2.002238667E-1,2.039642921E-1
1.229384017E1,1.158221867E-1,-7.401467700E-2,5.971264333E-1,6.127421388E-1
1.230380217E1,7.079459821E-3,-7.973592170E-2,-7.892665243E-1,7.933155629E-1
1.231376417E1,8.881873067E-2,-7.370570647E-2,1.039295805E-1,1.553146992E-1
1.232372617E1,-7.165586452E-2,7.446429133E-4,3.179715872E-3,7.173024471E-2
1.233368817E1,1.076762570E-1,-9.954517370E-2,2.206739187E-2,1.482915632E-1
1.234365017E1,-7.653094403E-2,4.611494333E-2,4.721392751E-1,4.805195818E-1
1.235361217E1,-4.694546722E-2,-4.705745967E-2,-6.608189839E-1,6.641536049E-1
1.236357417E1,1.100962733E-1,-1.224271741E-2,4.485141850E-1,4.619913935E-1
1.237353617E1,-1.116193543E-1,3.985080292E-2,-3.276253402E-1,3.484039757E-1
1.238349817E1,1.847735678E-1,-9.759302594E-2,2.141221136E-1,2.991888193E-1
1.239346017E1,2.350597594E-2,-9.987592511E-4,1.729296488E-1,1.745227545E-1
1.240342217E1,3.989291658E-2,-6.881578965E-2,-4.688929009E-1,4.755918526E-1
1.241338417E1,1.188490618E-1,7.004178632E-3,5.301085711E-1,5.433132201E-1
1.242334617E1,-3.860594442E-2,4.739456993E-2,-5.042124224E-1,5.079043523E-1
1.243330817E1,8.873588294E-2,6.254485186E-2,5.675465387E-1,5.778364726E-1
1.244327017E1,-1.203919684E-1,1.202920085E-1,-1.880891401E-1,2.536570874E-1
1.245323217E1,4.406556276E-2,3.478921551E-2,1.036664557E-1,1.178931609E-1
1.246319417E1,-9.711114228E-2,1.034474592E-1,2.441785562E-1,2.824094865E-1
1.247315617E1,7.058271087E-3,9.331936911E-3,-2.544170308E-1,2.546859435E-1
1.248311817E1,6.751694947E-2,-3.363241699E-2,3.779868239E-1,3.854396412E-1
1.249308017E1,-3.915933313E-2,-4.853675041E-2,-3.948461008E-1,3.997408071E-1
1.250304217E1,1.687691904E-1,-1.729183563E-1,5.482992589E-2,2.477702935E-1
1.251300417E1,1.392525485E-2,-5.748414153E-2,-7.306680679E-3,5.959636594E-2
1.252296617E1,8.263148116E-2,-1.041750173E-1,-1.475340217E-1,1.986118916E-1
1.253292817E1,4.789035443E-2,-1.243392136E-2,2.341575980E-1,2.393279531E-1
1.254289017E1,-4.605172487E-2,-5.466306098E-3,-3.457037616E-1,3.488004195E-1
1.255285217E1,4.352341167E-2,2.388167325E-2,2.832847345E-1,2.876019167E-1
1.256281417E1,-7.794965213E-2,6.400221555E-2,-9.782333314E-2,1.405056453E-1
1.257277617E1,7.461583929E-2,2.114625441E-2,2.410771930E-1,2.532447444E-1
1.258273817E1,-3.153872549E-2,6.720477210E-2,3.838053882E-2,8.357175575E-2
1.259270017E1,6.302011172E-2,-1.792902499E-4,-1.692178363E-1,1.805719877E-1
1.260266217E1,5.962155924E-2,-1.488695623E-2,1.641202337E-1,1.752478328E-1
1.261262417E1,1.498844197E-2,-1.885617413E-3,-1.285089362E-1,1.293938005E-1
1.262258617E1,7.618578928E-2,-3.307879530E-2,2.588790411E-1,2.718765144E-1
1.263254817E1,-4.546811337E-2,4.191432187E-2,-6.115895212E-2,8.697457752E-2
1.264251017E1,2.506444392E-2,4.534753282E-3,-5.740620911E-2,6.280336919E-2
1.265247217E1,-3.792366343E-2,4.606639316E-2,8.328364670E-2,1.024523432E-1
1.266243317E1,-2.571045619E-2,4.460183010E-3,-6.609809518E-2,7.106250049E-2
1.267239517E1,5.209462011E-3,-1.993993727E-2,2.513677078E-1,2.522111499E-1
1.268235717E1,-7.294892601E-3,-4.364856949E-2,-1.324324179E-1,1.396307931E-1
1.269231917E1,8.396492042E-2,-7.126118660E-2,1.920401037E-2,1.117902437E-1
1.270228117E1,1.975437497E-2,-5.472610127E-2,-1.358711654E-1,1.478044488E-1
1.271224317E1,1.045234748E-1,-9.409436272E-2,-4.109481633E-2,1.465185648E-1
1.272220517E1,5.330120791E-2,-4.935484897E-2,1.072437823E-1,1.295304934E-1
1.273216717E1,3.086368500E-2,-1.346264759E-2,-9.062424123E-2,9.667762425E-2
1.274212917E1,2.752474899E-2,2.806617832E-2,1.415412104E-1,1.468987284E-1
1.275209117E1,-4.896507723E-2,9.032035047E-2,-7.055893600E-2,1.246350992E-1
1.276205317E1,2.166439081E-6,7.625977026E-2,1.147551155E-1,1.377834863E-1
1.277201517E1,-4.045010598E-2,1.048633991E-1,9.558268011E-2,1.475418323E-1
1.278197717E1,1.557428273E-2,4.534508429E-2,2.986757755E-2,5.648722989E-2
1.279193917E1,6.076081612E-3,1.678883621E-2,9.107389212E-2,9.280752994E-2
1.280190117E1,2.181605981E-2,-2.220122002E-2,-9.633463204E-2,1.012383127E-1
1.281186317E1,8.105878115E-2,-6.311407831E-2,4.301855028E-2,1.113755294E-1
1.282182517E1,7.303252292E-3,-4.739749353E-2,-5.158472121E-2,7.043325457E-2
1.283178717E1,6.240356395E-2,-7.128791934E-2,-3.421030462E-2,1.007299220E-1
1.284174917E1,-1.878161071E-5,-2.678280585E-2,6.607587576E-2,7.129754834E-2
1.285171117E1,1.404838671E-2,-3.543741591E-2,-9.078270078E-2,9.846149692E-2
1.286167317E1,1.281851740E-2,-1.419612598E-2,1.249111444E-1,1.263670779E-1
1.287163517E1,-1.035489358E-2,5.841167439E-3,-7.940518856E-2,8.029026733E-2
1.288159717E1,3.235855081E-2,-1.675472137E-2,7.701893985E-2,8.520395293E-2
1.289155917E1,2.045478461E-2,4.821285121E-3,-4.452888608E-2,4.923885355E-2
1.290152117E1,7.391834869E-2,-4.275204515E-2,4.573692083E-2,9.686859948E-2
1.291148317E1,3.925857591E-2,-1.061393894E-2,1.205403507E-2,4.241687452E-2
1.292144517E1,4.270006432E-2,-2.621039998E-2,-1.278142869E-2,5.170730586E-2
1.293140717E1,2.696380458E-2,1.553751379E-3,1.176986039E-2,2.946167874E-2
1.294136917E1,-8.476690830E-3,4.222511966E-2,5.308920979E-2,6.836138687E-2
1.295133117E1,7.697746916E-3,3.661142718E-2,4.769807696E-2,6.061978599E-2
1.296129317E1,-3.111281522E-2,8.514755633E-2,1.325628108E-1,1.605958045E-1
1.297125517E1,-2.063490112E-3,5.275546169E-2,-2.356135547E-2,5.781465386E-2
1.298121717E1,-7.028485690E-3,3.697433827E-2,8.569737732E-2,9.359776590E-2
1.299117917E1,2.425849318E-3,-1.527903032E-2,-8.943842590E-2,9.076654416E-2
1.300114117E1,5.264764451E-2,-4.641856000E-2,7.730720758E-2,1.044167684E-1
1.301110317E1,3.914152653E-2,-7.617248230E-2,-7.118107975E-2,1.113600120E-1
1.302106517E1,8.018530763E-2,-8.545775112E-2,1.264869690E-2,1.178672996E-1
1.303102717E1,5.403498322E-2,-6.639807561E-2,-9.257545710E-2,1.260900437E-1
1.304098917E1,4.871548792E-2,-3.901878068E-2,-1.552435756E-3,6.243455827E-2
1.305095117E1,2.255495144E-2,-1.510887634E-2,8.332282305E-3,2.839772715E-2
1.306091317E1,1.621458254E-2,2.940007439E-2,8.527871668E-2,9.165007681E-2
1.307087517E1,4.337417748E-5,3.519671163E-2,1.806965053E-2,3.956415879E-2
1.308083717E1,6.259180546E-3,6.046974812E-2,8.916828454E-2,1.079201128E-1
1.309079917E1,2.277091698E-2,2.126138974E-2,-2.175105751E-2,3.799565576E-2
1.310076117E1,2.366529430E-2,2.452811949E-2,9.829169512E-2,1.040333222E-1
1.311072317E1,1.376769409E-2,-6.420407239E-3,-1.247912765E-2,1.965959451E-2
1.312068517E1,4.538654014E-2,-9.454856347E-3,8.241708934E-2,9.456166745E-2
1.313064717E1,2.271894529E-2,-1.670715792E-2,-6.667112231E-2,7.239004180E-2
1.314060917E1,3.543502678E-2,-1.523186887E-2,3.466872633E-2,5.186107921E-2
1.315057104E1,-3.779348408E-5,1.975554898E-3,-2.191361010E-2,2.200251243E-2
1.316053304E1,7.618143699E-3,-1.105142031E-3,5.712437332E-2,5.764071026E-2
1.317049504E1,-5.950532641E-4,1.405487917E-3,-1.855906248E-3,2.402888402E-3
1.318045704E1,9.940581811E-3,2.582386248E-3,4.155440748E-2,4.280482060E-2
1.319041904E1,1.526856700E-2,-3.086259093E-2,-1.607808888E-2,3.800175784E-2
1.320038104E1,2.616630603E-2,-2.341585116E-2,3.541541576E-2,4.987212980E-2
1.321034304E1,4.887525852E-2,-4.505816873E-2,-5.588827193E-2,8.684773114E-2
1.322030504E1,6.018205140E-2,-3.817641618E-2,1.940924764E-2,7.386499142E-2
1.323026704E1,3.750894052E-2,-4.215561088E-2,-6.126244783E-2,8.328927700E-2
1.324022904E1,5.227660670E-2,-1.357248388E-3,6.687694430E-2,8.489529675E-2
1.325019104E1,1.003408930E-2,2.892264923E-2,-1.529514670E-2,3.422198269E-2
1.326015204E1,1.059390081E-2,4.184059214E-2,7.796384990E-2,8.911356674E-2
1.327011404E1,-1.351379017E-2,5.737439660E-2,1.404325783E-2,6.059419940E-2
1.328007604E1,9.040520590E-4,4.541614624E-2,9.861329198E-2,1.085726715E-1
1.329003804E1,-1.888007005E-2,3.416182755E-2,4.172397673E-2,5.713473323E-2
1.330000004E1,1.094515402E-2,1.484176822E-2,6.237341881E-2,6.504243118E-2
1.330996204E1,1.908190634E-2,-2.663841616E-2,-5.143795609E-3,3.316900660E-2
1.331992404E1,3.926006055E-2,-4.330020335E-2,1.042090774E-2,5.937049168E-2
1.332988604E1,5.032513503E-2,-5.783632664E-2,-5.783656418E-2,9.603503554E-2
1.333984804E1,4.200290719E-2,-5.414505249E-2,3.257249951E-2,7.587422913E-2
1.334981004E1,4.209196759E-2,-3.833615480E-2,-4.945107222E-2,7.541089473E-2
1.335977204E1,2.279200807E-2,-1.627906865E-2,3.512539387E-2,4.492523792E-2
1.336973404E1,1.239969802E-2,-6.864722539E-3,-3.746895790E-2,4.005995173E-2
1.337969604E1,1.414384821E-2,8.187600262E-3,6.791365564E-2,6.985234329E-2
1.338965804E1,-5.683192403E-4,1.697220124E-2,6.093383431E-3,1.804183814E-2
1.339962004E1,2.708918624E-2,2.450944494E-2,6.162672937E-2,7.164070544E-2
1.340958204E1,2.570675828E-2,-3.178674337E-3,5.531466007E-4,2.590844192E-2
1.341954404E1,4.222365785E-2,1.407095902E-3,2.989389002E-2,5.175385843E-2
1.342950604E1,3.156126468E-2,-5.153534878E-3,1.751825809E-3,3.202719538E-2
1.343946804E1,2.801575065E-2,-4.609451462E-3,3.722922206E-2,4.682034069E-2
1.344943004E1,2.551807366E-2,1.068152910E-2,2.211007655E-2,3.541359389E-2
1.345939204E1,1.267344021E-2,2.163181085E-2,4.022182703E-2,4.739564007E-2
1.346935404E1,1.046695456E-2,2.805667659E-2,2.151132166E-2,3.687100757E-2
1.347931604E1,5.131824235E-3,2.800195031E-2,5.009894371E-2,5.762246959E-2
1.348927804E1,1.094155547E-2,-1.093612053E-4,1.192364216E-2,1.618341244E-2
1.349924004E1,1.074789043E-2,1.659110896E-3,3.018274248E-2,3.208220287E-2
1.350920204E1,2.584614814E-2,-3.290747188E-2,4.286009073E-3,4.206298792E-2
1.351916404E1,4.123568854E-2,-4.060242595E-2,-8.888937235E-3,5.854871654E-2
1.352912604E1,4.278389877E-2,-4.665018283E-2,-2.939453781E-2,6.979068996E-2
1.353908804E1,5.320204278E-2,-4.456588799E-2,-2.446475029E-3,6.944466120E-2
1.354905004E1,2.683909900E-2,-3.507658789E-2,-1.052732706E-2,4.540406224E-2
1.355901204E1,9.441063999E-3,8.966559023E-3,3.397232294E-3,1.345637609E-2
1.356897404E1,7.718577622E-3,1.716779061E-2,3.168898523E-2,3.685785208E-2
1.357893604E1,1.231718718E-2,2.216149550E-2,6.132618248E-2,6.636072363E-2
1.358889804E1,7.851845602E-4,5.124357272E-2,6.012341022E-2,7.900218172E-2
1.359886004E1,8.829625683E-3,3.586349521E-2,2.389347732E-2,4.398921273E-2
1.360882204E1,8.014575213E-3,8.516615778E-3,1.730191112E-2,2.088354109E-2
1.361878404E1,2.505268326E-2,8.260087464E-3,1.565007269E-2,3.067231257E-2
1.362874604E1,1.771147888E-2,-1.467377041E-2,2.567220032E-2,3.446850579E-2
1.363870804E1,3.019409887E-2,-2.963451119E-2,-1.720835567E-3,4.234204925E-2
1.364867004E1,2.009914143E-2,-1.701905206E-2,-8.158620000E-3,2.757148344E-2
1.365863204E1,3.218096447E-2,-1.010629099E-2,-2.567278504E-2,4.238919065E-2
1.366859404E1,1.191994425E-2,-1.998969343E-2,8.599090755E-2,8.908484212E-2
1.367855604E1,1.594696621E-2,-9.764320236E-3,-3.973183036E-3,1.911632455E-2
1.368851804E1,1.181701613E-2,8.006281760E-3,1.398653984E-2,1.998413657E-2
1.369848004E1,1.050730377E-2,2.935028169E-3,-1.116174996E-2,1.560777002E-2
1.370844204E1,2.740029466E-2,-2.161236886E-2,2.984886646E-2,4.592194970E-2
1.371840404E1,3.162655478E-2,-1.294597300E-2,5.599878430E-3,3.462940691E-2
1.372836604E1,4.370216744E-2,-2.747983050E-2,2.296026170E-2,5.649950567E-2
1.373832804E1,2.166313228E-2,-1.658107733E-2,-3.182522535E-2,4.191739967E-2
1.374829004E1,2.116899460E-2,-1.485269520E-2,1.652598560E-2,3.068936440E-2
1.375825204E1,3.164563817E-2,2.514741272E-3,8.891860843E-3,3.296718866E-2
1.376821404E1,8.809568706E-3,6.827684082E-3,5.140404224E-2,5.259849171E-2
1.377817604E1,6.465922446E-3,1.347647991E-2,3.119489551E-2,3.459111402E-2
1.378813804E1,-3.169914933E-3,2.282075079E-2,5.783364058E-2,6.225403609E-2
1.379810004E1,6.702101993E-3,3.221832270E-2,-3.392554522E-3,3.308244119E-2
1.380806204E1,1.149710605E-2,1.981961254E-2,2.654109657E-2,3.506323282E-2
1.381802404E1,2.352818851E-2,-4.944277648E-3,3.486694694E-3,2.429359125E-2
1.382798604E1,2.453143824E-2,-4.132342419E-2,4.764077425E-2,6.766875364E-2
1.383794804E1,3.152735540E-2,-2.637573000E-2,-4.202218473E-2,5.878364807E-2
1.384791004E1,4.199416834E-2,-4.032426294E-2,-1.058696866E-2,5.917465895E-2
1.385787204E1,4.380876950E-2,-3.890395598E-2,-2.300879359E-2,6.294545781E-2
1.386783404E1,3.175120783E-2,-1.490276199E-2,1.890638709E-2,3.984573987E-2
1.387779504E1,2.230753885E-2,-5.681556724E-3,2.143004537E-3,2.311923106E-2
1.388775704E1,1.001957861E-2,2.243192922E-2,4.211047769E-2,4.875321256E-2
1.389771904E1,1.353318648E-2,1.409113191E-2,5.739042163E-3,2.036280285E-2
1.390768104E1,2.395853902E-2,8.561401796E-3,4.450842083E-2,5.126703343E-2
1.391764304E1,7.194133198E-3,-7.343371958E-4,6.192201376E-3,9.520407632E-3
1.392760504E1,3.069031734E-2,-1.291339304E-3,2.535177290E-2,3.982807458E-2
1.393756704E1,2.225858897E-2,-1.025736842E-2,-1.072379351E-2,2.675178755E-2
1.394752904E1,3.115305365E-2,-1.593388192E-2,6.217402875E-2,7.134431440E-2
1.395749104E1,7.994565059E-3,-1.279315967E-2,-7.427133322E-3,1.681488371E-2
1.396745304E1,8.095972566E-3,-1.404059004E-2,4.122287035E-2,4.429455926E-2
1.397741504E1,1.412036913E-3,-1.785867568E-3,-2.373735666E-2,2.384628425E-2
1.398737704E1,1.520658651E-2,-3.072583918E-3,3.629015923E-2,3.946715979E-2
1.399733904E1,6.276800993E-3,-6.693874206E-3,2.671066582E-2,2.824297880E-2
1.400730104E1,7.588973287E-3,-6.339551210E-3,5.634786308E-2,5.720895121E-2
1.401726304E1,2.407007694E-2,-3.899562936E-3,-1.310887277E-2,2.768425076E-2
1.402722504E1,2.609671275E-2,-2.438031284E-2,3.356301785E-3,3.587064025E-2
1.403718704E1,2.843820970E-2,-2.046962192E-2,-3.136797309E-2,4.702857566E-2
1.404714904E1,3.737095994E-2,-6.708126795E-3,4.976331353E-2,6.259372960E-2
1.405711104E1,4.047221577E-2,-1.604726309E-2,-1.278786063E-3,4.355628767E-2
1.406707304E1,3.548143905E-2,-1.913300324E-3,4.063639462E-2,5.398064285E-2
1.407703504E1,4.831277921E-3,1.125620076E-2,-2.103126526E-2,2.433839396E-2
1.408699704E1,1.076493872E-2,1.084852193E-2,2.866422057E-2,3.248402491E-2
1.409695904E1,6.860746546E-3,1.625884093E-2,1.100036681E-2,2.079489893E-2
1.410692104E1,1.674249703E-2,1.263866527E-2,5.021530330E-2,5.442080257E-2
1.411688304E1,8.810039795E-3,-1.529631615E-2,1.054662287E-2,2.056271730E-2
1.412684504E1,2.334408573E-2,-2.562469169E-2,4.901662409E-2,6.003499480E-2
1.413680704E1,1.553263160E-2,-3.702634195E-2,1.428942561E-2,4.261924831E-2
1.414676904E1,1.861528483E-2,-2.423818896E-2,9.052659273E-3,3.187427290E-2
1.415673104E1,3.439272176E-2,-2.981296090E-2,-2.761639953E-2,5.323849613E-2
1.416669304E1,2.032971815E-2,-3.270174125E-2,-9.665447474E-4,3.851798969E-2
1.417665504E1,1.118638135E-2,-1.448991202E-2,-1.802579641E-2,2.569089361E-2
1.418661704E1,1.964576751E-2,1.027902139E-2,3.885825634E-2,4.473900477E-2
1.419657904E1,1.091221204E-2,2.881964687E-3,4.275191724E-2,4.421660910E-2
1.420654104E1,1.476508633E-2,1.043362543E-2,7.238852978E-2,7.461211401E-2
1.421650304E1,1.462580953E-2,6.029922869E-3,9.816305637E-3,1.861811297E-2
1.422646504E1,3.240377537E-2,5.524705164E-3,2.033661604E-3,3.293421936E-2
1.423642704E1,2.150270159E-2,-3.744629994E-3,-1.233236253E-2,2.506941553E-2
1.424638904E1,2.907462202E-2,-2.919295505E-3,3.242631912E-2,4.364999546E-2
1.425635104E1,2.443759728E-2,-1.295580363E-2,1.027648151E-2,2.950686498E-2
1.426631304E1,1.384010249E-2,-4.855198972E-3,1.701598227E-2,2.246475120E-2
1.427627504E1,1.318738991E-2,-2.499076216E-2,5.342600942E-3,2.875741349E-2
1.428623704E1,1.486126160E-2,-1.688745316E-2,3.872260094E-2,4.478261933E-2
1.429619904E1,1.621192160E-2,-1.078955641E-2,1.522264123E-2,2.471780199E-2
1.430616104E1,1.463829425E-2,-5.628292244E-3,1.118279994E-2,1.926168078E-2
1.431612304E1,1.542011952E-2,3.958930448E-4,-1.111789584E-2,1.901432158E-2
1.432608504E1,2.726963680E-2,-1.702066004E-2,1.343280852E-2,3.483929253E-2
1.433604704E1,1.799658889E-2,-2.203373384E-2,7.896080017E-3,2.952474755E-2
1.434600904E1,3.438397149E-2,-1.742236376E-2,3.244561493E-2,5.038366980E-2
1.435597104E1,3.927643733E-2,-1.894114148E-2,-3.025934100E-3,4.370997194E-2
1.436593304E1,4.048889861E-2,-1.609811559E-2,1.074952126E-2,4.487819563E-2
1.437589504E1,2.319375747E-2,4.715432245E-3,3.867933154E-3,2.398221411E-2
1.438585704E1,1.799760644E-2,5.787464418E-3,2.677381575E-2,3.277568904E-2
1.439581904E1,1.374642028E-2,2.630313316E-2,5.656128645E-2,6.387486211E-2
1.440578104E1,1.573651441E-2,2.034582540E-2,3.934649885E-2,4.700784476E-2
1.441574304E1,1.502592011E-2,2.661195751E-2,3.709765971E-2,4.806465347E-2
1.442570504E1,1.227554176E-2,3.200619668E-3,2.931150734E-2,3.193896295E-2
1.443566704E1,9.287710490E-3,-1.851813197E-3,2.122714698E-2,2.324397873E-2
1.444562904E1,1.197021546E-2,-2.197617531E-2,9.848465323E-3,2.689294719E-2
1.445559104E1,2.539329499E-2,-3.397844424E-2,-2.275736332E-3,4.247979613E-2
1.446555304E1,2.645327185E-2,-3.308829702E-2,2.215510011E-3,4.242074346E-2
1.447551504E1,2.603894637E-2,-2.747719925E-2,8.504190445E-3,3.879876882E-2
1.448547704E1,1.154323396E-2,-1.627471978E-2,1.270015240E-2,2.365177847E-2
1.449543904E1,9.670979488E-3,-1.236028299E-3,8.810584545E-3,1.314085272E-2
1.450540104E1,1.571094426E-2,-2.097763533E-2,1.210724473E-2,2.887005938E-2
1.451536304E1,9.860120926E-3,-9.760501273E-3,2.737549424E-2,3.069050431E-2
1.452532504E1,2.311211115E-2,-1.850588936E-3,4.099833727E-2,4.710050977E-2
1.453528604E1,2.873521399E-2,-1.847171970E-4,1.555067003E-2,3.267368944E-2
1.454524804E1,2.942004172E-2,9.267361723E-3,1.629852891E-2,3.488645715E-2
1.455521004E1,2.702122606E-2,9.173185006E-3,1.899526477E-2,3.427993677E-2
1.456517204E1,2.912051353E-2,1.896354362E-2,2.408702016E-2,4.228244121E-2
1.457513404E1,2.307110298E-2,1.452738902E-2,4.504227161E-2,5.265099293E-2
1.458509604E1,1.455833472E-2,1.381017320E-2,3.560661972E-2,4.087171835E-2
1.459505804E1,6.893644558E-4,1.513189975E-2,3.515462995E-2,3.827920611E-2
1.460502004E1,8.280857071E-3,2.945209634E-2,2.527225077E-2,3.968230376E-2
1.461498204E1,1.610769498E-2,5.942762811E-3,3.230352759E-2,3.658267571E-2
1.462494404E1,2.528669522E-2,-6.053457912E-3,2.002612889E-2,3.281931057E-2
1.463490604E1,2.579413304E-2,-5.760238320E-3,1.089102387E-2,2.858552161E-2
1.464486804E1,1.813622656E-2,-2.772247167E-2,-2.997516632E-2,4.467626602E-2
1.465483004E1,2.980765273E-2,-3.025471805E-2,-1.321002960E-2,4.447863540E-2
1.466479204E1,3.312485811E-2,-2.563342597E-2,-1.410816193E-2,4.419693411E-2
1.467475404E1,3.223009479E-2,-2.779601868E-2,7.598456740E-3,4.323348482E-2
1.468471604E1,2.986564523E-2,-8.891367484E-3,-1.230254173E-3,3.118536045E-2
1.469467804E1,1.759320752E-2,-6.136652827E-3,7.903096676E-3,2.023952559E-2
1.470464004E1,1.400860394E-2,6.319232136E-3,8.205982447E-3,1.742159083E-2
1.471460204E1,1.622605084E-2,2.694892159E-2,3.679711282E-2,4.841029449E-2
1.472456404E1,2.216738840E-2,2.862285152E-2,5.969890237E-2,6.981847665E-2
1.473452604E1,9.914820943E-3,3.701117573E-2,3.245555520E-2,5.021447866E-2
1.474448804E1,1.691242260E-2,1.471382383E-2,2.047987282E-2,3.036365987E-2
1.475445004E1,1.471152834E-2,1.762292325E-2,5.958312750E-3,2.371703989E-2
1.476441204E1,1.438387756E-2,7.631676234E-3,1.179558814E-2,2.010657393E-2
1.477437404E1,1.501762095E-2,1.885069236E-3,3.499441624E-2,3.812730770E-2
1.478433604E1,1.364868384E-2,-2.443350423E-3,-1.305975616E-2,1.904767080E-2
1.479429804E1,1.505465826E-2,-3.201405387E-3,6.695646644E-3,1.678461843E-2
1.480426004E1,8.274405148E-3,-1.018042272E-2,6.843581200E-3,1.479666824E-2
1.481422204E1,1.942847036E-2,-2.582539737E-2,3.992712736E-2,5.136722797E-2
1.482418404E1,7.204980240E-3,-8.617297523E-3,6.247165203E-3,1.285288411E-2
1.483414604E1,1.919752590E-2,-2.348258251E-2,7.894910574E-3,3.134176598E-2
1.484410804E1,3.374535047E-2,-2.072558379E-2,-1.769952178E-2,4.337708581E-2
1.485407004E1,3.540072463E-2,-2.589211045E-2,2.256849825E-2,4.932494097E-2
1.486403204E1,1.973517509E-2,-2.105120061E-2,-1.380293727E-2,3.198673569E-2
1.487399404E1,3.850019661E-2,-3.839336615E-3,2.272520363E-2,4.487137757E-2
1.488395604E1,3.436638188E-2,9.874430615E-3,1.090154886E-2,3.738176495E-2
1.489391804E1,2.548369614E-2,1.277417449E-2,4.099132061E-2,4.992881601E-2
1.490388004E1,1.002285396E-2,1.299269591E-2,4.772965193E-2,5.047164968E-2
1.491384204E1,1.536165193E-2,1.082295863E-2,5.087077618E-2,5.423055091E-2
1.492380404E1,8.859301445E-3,2.124399427E-2,2.676855326E-2,3.530368194E-2
1.493376604E1,1.396798178E-2,9.664369393E-3,3.963944435E-2,4.312528376E-2
1.494372804E1,9.385838646E-3,-3.682923596E-3,2.466706395E-2,2.664811320E-2
1.495369004E1,3.413124615E-2,-4.617363475E-3,3.214857638E-2,4.711467895E-2
1.496365204E1,1.041107825E-2,-1.032616457E-2,5.803946257E-3,1.577041588E-2
1.497361404E1,1.873026256E-2,-2.458536739E-2,5.654257536E-4,3.091250121E-2
1.498357604E1,1.998835953E-2,-2.087344525E-2,2.362859845E-3,2.899686776E-2
1.499353804E1,3.532432482E-2,-2.166411672E-2,2.242231786E-2,4.711583827E-2
1.500350004E1,1.395578942E-2,-1.583393108E-2,8.804737329E-3,2.286921143E-2
1.501346204E1,1.067038399E-2,-1.884137336E-3,1.659205914E-2,1.981674782E-2
1.502342404E1,1.079835236E-2,-4.972563554E-3,1.165467024E-2,1.664818730E-2
1.503338604E1,1.409106110E-2,1.477083419E-2,8.062725663E-3,2.194864667E-2
1.504334804E1,2.582259254E-2,-6.310753673E-3,3.081424177E-2,4.069581542E-2
1.505331004E1,2.340234090E-2,4.755010586E-3,3.979614973E-2,4.641134795E-2
1.506327204E1,2.321784297E-2,-4.577876497E-3,3.051661849E-2,3.861721364E-2
1.507323404E1,2.049594581E-2,-1.585936647E-2,1.824389756E-2,3.169295028E-2
1.508319604E1,1.679888612E-2,8.767406512E-3,2.198786974E-2,2.902647770E-2
1.509315804E1,1.760682057E-2,4.402661026E-3,3.067040026E-2,3.563785918E-2
1.510312004E1,9.196861661E-3,-4.143446647E-3,3.905355334E-2,4.033522584E-2
1.511308204E1,1.397607766E-2,-4.353964683E-3,2.632767320E-2,3.012364738E-2
1.512304404E1,1.651599508E-2,9.905950762E-3,7.316036224E-3,2.060170721E-2
1.513300604E1,8.732318650E-3,1.004725238E-2,1.539922714E-2,2.035526630E-2
1.514296804E1,1.597434420E-2,-1.234405696E-2,8.366196156E-3,2.185288661E-2
1.515292971E1,2.205699708E-2,-2.808894591E-2,1.330709338E-2,3.811271096E-2
1.516289171E1,9.682204543E-3,-2.730510838E-2,7.917129993E-3,3.003323119E-2
1.517285371E1,1.736808515E-2,-1.004398160E-2,2.902616322E-2,3.528526746E-2
1.518281571E1,1.799417348E-2,-9.836843982E-3,-4.601758718E-4,2.051257031E-2
1.519277671E1,2.765960725E-2,-4.807873070E-4,8.373212814E-3,2.890321302E-2
1.520273871E1,9.103117775E-3,3.346215338E-3,1.091967523E-2,1.460490388E-2
1.521270071E1,2.528172737E-2,6.149333976E-3,1.451337397E-2,2.979291982E-2
1.522266271E1,1.111060395E-2,5.245683342E-3,2.589030147E-2,2.865781611E-2
1.523262471E1,1.233203134E-2,1.355828611E-2,3.771337152E-2,4.193094931E-2
1.524258671E1,1.022344544E-2,-6.863955092E-3,2.304153800E-2,2.612556582E-2
1.525254871E1,2.175313601E-2,8.405591771E-3,1.046768546E-2,2.556218571E-2
1.526251071E1,1.099981064E-2,-6.867262423E-3,1.286270499E-2,1.826483799E-2
1.527247271E1,2.287605494E-2,-1.985029215E-2,2.064534903E-2,3.665485540E-2
1.528243471E1,1.920072588E-2,-8.110782467E-3,7.770364881E-3,2.224480247E-2
1.529239671E1,1.663654937E-2,-1.105184058E-2,1.779833972E-2,2.675254851E-2
1.530235871E1,2.338273445E-2,2.619132344E-3,6.570516229E-3,2.442915898E-2
1.531232071E1,1.068059949E-2,-8.196517266E-4,1.315623522E-2,1.696565824E-2
1.532228271E1,1.683524849E-2,7.018668763E-4,-1.695692539E-5,1.684988120E-2
1.533224471E1,9.244259511E-3,-1.749845065E-2,1.779424667E-2,2.661366799E-2
1.534220671E1,8.000866233E-3,-1.031962300E-2,1.854327500E-2,2.267953983E-2
1.535216871E1,1.982262751E-2,-1.633640790E-2,1.974136949E-2,3.239655003E-2
1.536213071E1,2.936889228E-2,-1.047245460E-2,5.220978856E-3,3.161428094E-2
1.537209271E1,1.152115387E-2,-6.064220443E-3,9.332740903E-3,1.601910761E-2
1.538205471E1,-1.536793312E-2,1.315207090E-1,-4.283301812E-1,4.483309207E-1
1.539201671E1,2.024362887E-1,-1.958606378E-1,8.376785463E-1,8.837687409E-1
1.540197871E1,-5.426241250E-2,5.972022643E-2,-3.846269220E-1,3.929997252E-1
1.541194071E1,-5.190059876E-2,5.678136103E-2,-7.874796152E-2,1.100864958E-1