"Time (s)","Linear Acceleration x (m/s^2)","Linear Acceleration y (m/s^2)","Linear Acceleration z (m/s^2)","Absolute acceleration (m/s^2)"
4.402374965E-3,-5.890397797E-2,4.813937729E-2,-9.034474432E-2,1.181069477E-1
1.436537493E-2,2.691497119E-2,1.837396156E-3,1.937621087E-1,1.956311490E-1
2.432737499E-2,-5.798253901E-2,4.028435569E-2,-1.021777546E-1,1.241978168E-1
3.429037496E-2,1.437693742E-2,-5.152127892E-4,1.091897357E-1,1.101333743E-1
4.425237491E-2,-3.326688378E-2,1.694764294E-2,-4.350036085E-2,5.732529591E-2
5.421537498E-2,-5.507241176E-3,1.497746017E-3,2.940389335E-2,2.995266086E-2
6.417737494E-2,-1.713256570E-2,2.987196296E-4,1.532847583E-2,2.299078538E-2
7.414037501E-2,-2.253496356E-2,4.391734041E-3,-3.257074535E-2,3.984928309E-2
8.410237497E-2,5.020711720E-3,-2.316058366E-2,6.487310350E-2,6.906619824E-2
9.406537493E-2,-2.250408295E-2,4.384827018E-3,-3.392145216E-2,4.094295268E-2
1.040273750E-1,-8.594493382E-4,-1.296035349E-2,4.781151295E-2,4.954442639E-2
1.139903750E-1,-1.288296468E-2,-1.309209857E-3,-1.431164503E-2,1.930046613E-2
1.239523749E-1,7.014954868E-3,-1.082356162E-2,2.400983691E-2,2.725493252E-2
1.339153750E-1,-2.065533954E-2,-9.476436228E-3,2.206505299E-2,3.167510787E-2
1.438783749E-1,-1.406280489E-2,-4.395278916E-3,1.757789969E-2,2.293607455E-2
1.538403749E-1,-4.134346917E-3,-7.436635047E-3,2.506408989E-2,2.646894345E-2
1.638033750E-1,-1.651314456E-2,9.074348789E-3,4.709347486E-3,1.942178424E-2
1.737653749E-1,-3.184955525E-3,1.149747150E-2,2.207674742E-2,2.509419393E-2
1.837283750E-1,-2.155388300E-2,-2.543008905E-3,1.504079282E-2,2.640572316E-2
1.936903750E-1,-1.245547383E-2,1.371246988E-2,2.686503232E-2,3.263281508E-2
2.036533749E-1,-1.674363906E-2,2.457109652E-4,3.837176800E-2,4.186648304E-2
2.136153750E-1,-7.074428360E-2,3.034883995E-2,-1.710866064E-1,1.876071231E-1
2.235783749E-1,-3.011450364E-2,-9.647576921E-3,1.311840373E-1,1.349415085E-1
2.335403749E-1,2.541821372E-1,-1.086803518E-1,5.591809273E-1,6.237814418E-1
2.435033750E-1,-3.170858802E-1,1.090483244E-1,-7.382138997E-1,8.107988371E-1
2.534653749E-1,9.608077152E-2,-4.293246830E-2,2.999229866E-1,3.178498221E-1
2.634283750E-1,5.519950190E-2,-9.973303378E-3,2.057436383E-1,2.132531277E-1
2.733903750E-1,-1.674989559E-1,8.276867146E-2,-3.988455963E-1,4.404365594E-1
2.833533749E-1,1.783790527E-1,-8.433599934E-2,5.364650792E-1,5.715998849E-1
2.933163750E-1,-1.587648419E-1,-1.159110004E-2,-4.024539131E-1,4.327929999E-1
3.032783750E-1,-2.715218542E-1,-4.618838435E-1,-4.272618949E-2,5.374814690E-1
3.132413749E-1,-7.748383004E-1,-4.418410501E-1,4.887775272E-1,1.017104408E0
3.232033750E-1,-1.848164681E0,5.105589171E-1,-5.077213365E-1,1.983472725E0
3.331663749E-1,-3.087275778E0,1.834113822E0,4.415817261E-1,3.618043623E0
3.431283750E-1,-4.010180123E0,1.830620110E0,-3.585536027E-1,4.422813052E0
3.530913750E-1,-5.107286764E0,1.247774332E0,1.165221441E-1,5.258792284E0
3.630533749E-1,-4.639246387E0,5.218341031E-1,7.142315447E-2,4.669049062E0
3.730163750E-1,-3.011337696E0,-3.403874731E-1,-1.902836001E-1,3.036482537E0
3.829783750E-1,-2.157250693E0,-1.009627909E0,-4.838921785E-2,2.382314124E0
3.929413749E-1,-2.180136841E0,-1.495786030E0,1.871927619E-1,2.650549683E0
4.029033750E-1,-1.058758847E0,-1.891658902E0,3.545897752E-1,2.196605929E0
4.128663749E-1,-3.260192928E-1,-2.365202532E0,2.398463541E-1,2.399582853E0
4.228283750E-1,4.440962846E-1,-2.679824542E0,-1.719999415E-1,2.721812827E0
4.327913750E-1,8.048457726E-1,-2.703394668E0,-2.998522353E-1,2.836552628E0
4.427543749E-1,2.322209454E-1,-2.314484368E0,1.409629208E-1,2.330372289E0
4.527163750E-1,-5.924771294E-1,-1.907934627E0,3.662602329E-1,2.031105671E0
4.626793750E-1,-9.712380881E-1,-1.517513114E0,4.351170444E-1,1.853503795E0
4.726413749E-1,1.104161709E-1,-1.425910049E0,1.948876977E-2,1.430311508E0
4.826043750E-1,1.067413018E0,-1.427992389E0,-1.009823499E0,2.048969573E0
4.925663749E-1,-8.691456297E-1,-1.106986023E0,6.426090002E-1,1.547184058E0
5.025293749E-1,-1.359159551E0,-1.070876105E0,7.787204862E-1,1.897497276E0
5.124913750E-1,3.917066942E-1,-1.453716483E0,-1.079301285E0,1.852462418E0
5.224543749E-1,-8.698485381E-1,-1.053437734E0,5.183702856E-1,1.461189684E0
5.324163750E-1,-3.987369112E-1,-1.083706796E0,3.597505277E-1,1.209475914E0
5.423793750E-1,8.711134370E-1,-1.840306461E0,-6.583730936E-1,2.139864861E0
5.523413749E-1,9.105260825E-1,-2.438126667E0,5.414322889E-1,2.658320581E0
5.623043750E-1,1.052643097E0,-2.859978718E0,4.841143727E-2,3.047930351E0
5.722670000E-1,1.190297956E0,-3.282716330E0,-1.203830606E-1,3.493927276E0
5.822299999E-1,1.010948942E0,-3.159182205E0,3.380152577E-1,3.334172203E0
5.921920000E-1,1.235627326E0,-3.133064446E0,1.126173735E-3,3.367917603E0
6.021550000E-1,1.365927849E0,-2.696748138E0,6.151563227E-2,3.023572983E0
6.121179999E-1,1.438994071E0,-2.073255440E0,2.147331476E-2,2.523797369E0
6.220800000E-1,1.228118039E0,-1.400504335E0,9.445299804E-2,1.865102593E0
6.320430000E-1,1.131380095E0,-1.044671515E0,-7.775276542E-2,1.541883584E0
6.420049999E-1,1.277604926E0,-7.147667111E-1,2.390786147E-1,1.483349042E0
6.519680000E-1,9.145938443E-1,-7.508378191E-1,-4.812258482E-4,1.183317186E0
6.619299999E-1,4.693198939E-1,-6.726639810E-1,2.730357349E-2,8.206603922E-1
6.718929999E-1,-6.993406964E-3,-7.518841052E-1,1.479000574E-1,7.663243715E-1
6.818550000E-1,-5.584442512E-1,-9.230205591E-1,-7.907599032E-2,1.081702337E0
6.918179999E-1,-7.239263745E-1,-9.727394338E-1,5.216008723E-2,1.213677089E0
7.017800000E-1,-7.692555982E-1,-1.001194178E0,7.292588890E-2,1.264698439E0
7.117430000E-1,-1.101062794E0,-1.023785919E0,-2.590199590E-2,1.503711341E0
7.217049999E-1,-1.186004126E0,-1.069764330E0,1.276482260E-1,1.602278246E0
7.316680000E-1,-6.817465342E-1,-1.053431448E0,-1.757789969E-2,1.254912402E0
7.416299999E-1,-6.405281954E-1,-1.136769474E0,4.377634943E-2,1.305541104E0
7.515929999E-1,-4.199638389E-1,-1.168509988E0,-5.543160439E-4,1.241686565E0
7.615560000E-1,3.141206110E-1,-1.028780976E0,8.126460314E-3,1.075698886E0
7.715179999E-1,1.010298585E0,-8.968778772E-1,1.344543850E-1,1.357634391E0
7.814810000E-1,1.572183265E0,-1.020631931E0,-2.360579431E-2,1.874568481E0
7.914430000E-1,1.597658414E0,-1.170760947E0,1.564703214E-1,1.986876082E0
8.014059999E-1,1.017273071E0,-1.365262874E0,-1.174571139E-1,1.706629248E0
8.113680000E-1,5.073622078E-1,-1.491576035E0,1.120320672E-1,1.579483036E0
8.213310000E-1,-1.592552406E-1,-2.057123703E0,-3.058269203E-2,2.063505624E0
8.312929999E-1,-8.532126980E-1,-2.285642831E0,2.582259071E-1,2.453327470E0
8.412560000E-1,-1.500152146E0,-2.257189110E0,-8.306379139E-2,2.711504884E0
8.512179999E-1,-1.255248974E0,-1.766635199E0,1.072502142E-1,2.169827763E0
8.611810000E-1,-1.445335669E0,-1.258303559E0,2.158131284E-1,1.928444541E0
8.711430000E-1,-1.380421050E0,-6.603108609E-1,-1.331931406E-1,1.536005573E0
8.811059999E-1,-1.314962933E0,-5.340179829E-3,1.410360110E-1,1.322515477E0
8.910680000E-1,-9.512229227E-1,-1.159955109E-1,-3.547616833E-1,1.021829663E0
9.010310000E-1,8.161779324E-2,-1.268912309E0,4.234448326E-1,1.340188583E0
9.109939999E-1,2.498140442E0,-1.449135774E0,4.264011848E-1,2.919335220E0
9.209560000E-1,3.355585501E0,-2.937705756E0,-1.086898572E0,4.590361387E0
9.309189999E-1,2.167644119E0,-3.301984659E0,7.859435517E-1,4.027342918E0
9.408809999E-1,1.138386741E0,-2.848145415E0,6.382183260E-1,3.132918657E0
9.508440000E-1,1.194414396E0,-2.294343634E0,-9.362725425E-1,2.750862544E0
9.608059999E-1,3.495312028E-1,-1.331231933E0,4.331810313E-1,1.442912446E0
9.707690000E-1,-1.887202191E-1,-1.185188878E0,2.644759959E-1,1.228916413E0
9.807310000E-1,-4.512936224E-1,-1.564595333E0,-5.281819135E-1,1.711899712E0
9.906939999E-1,-1.853209512E0,-1.338052856E0,5.640417176E-1,2.354339398E0
1.000656000E0,-1.836908060E0,-1.119688880E0,-3.303261691E-1,2.176476461E0
1.010619000E0,-2.141562613E0,-1.136683593E0,2.693438029E-1,2.439443810E0
1.020581000E0,-1.760215394E0,-1.335328639E0,1.755673277E-1,2.216367455E0
1.030544000E0,-9.390474848E-1,-1.835161496E0,-8.937352180E-2,2.063399022E0
1.040507000E0,-8.448771997E-1,-2.115422928E0,2.442393672E-1,2.290957118E0
1.050469000E0,6.221647223E-1,-2.336750127E0,-1.249281013E-1,2.421383309E0
1.060432000E0,1.473989218E0,-2.314115117E0,1.964459807E-1,2.750702458E0
1.070394000E0,1.745792068E0,-2.161578802E0,-1.752001226E-2,2.778582338E0
1.080357000E0,1.619435053E0,-2.391731350E0,6.287861824E-2,2.889100632E0
1.090319000E0,1.095758638E0,-2.548213658E0,1.702925545E-1,2.779042892E0
1.100282000E0,1.198076434E0,-2.955506142E0,-1.609106970E-1,3.193163940E0
1.110244000E0,1.657154856E0,-3.247404410E0,1.955735761E-1,3.651033640E0
1.120207000E0,1.903572604E0,-3.144216256E0,3.055871844E-2,3.675679306E0
1.130169000E0,1.824055880E0,-2.581945660E0,1.886832172E-1,3.166895104E0
1.140132000E0,2.186814654E0,-2.184134729E0,2.333325559E-1,3.099523661E0
1.150094000E0,3.669369312E0,-1.341318965E0,-5.064507365E-1,3.939530437E0
1.160057000E0,4.395409016E0,-5.125773029E-1,4.179063499E-1,4.444884884E0
1.170019000E0,4.587943502E0,-4.474659254E-1,8.556523025E-2,4.610506777E0
1.179982000E0,4.303435238E0,-1.695826294E-1,-2.609214735E-1,4.314671845E0
1.189944000E0,3.245354376E0,1.906187735E-1,4.205399358E-1,3.278035140E0
1.199907000E0,1.789922174E0,2.372076153E-1,-1.903496736E-1,1.815577550E0
1.209870000E0,-1.831632629E-1,5.252505581E-1,-5.635838807E-2,5.591182322E-1
1.219832000E0,1.542195088E-1,6.588889642E-1,1.517089337E-1,6.934939975E-1
1.229795000E0,4.627464083E-2,5.151867325E-1,-1.362974274E-1,5.349165360E-1
1.239757000E0,7.702972066E-2,6.419316734E-1,1.238732636E-1,6.582966175E-1
1.249720000E0,5.539420961E-2,4.493106488E-1,-7.567700386E-2,4.589941029E-1
1.259682000E0,6.223010721E-2,4.283189619E-1,4.768521309E-2,4.354349537E-1
1.269645000E0,6.354248278E-2,2.826813384E-1,1.592430711E-2,2.901723104E-1
1.279607000E0,2.330303645E-2,1.447671924E-2,-4.064107239E-2,4.903369936E-2
1.289570000E0,6.578300791E-2,-4.993986290E-2,9.496170580E-2,1.258535641E-1
1.299532000E0,9.348706543E-3,-1.535736473E-2,-5.427210152E-2,5.717261555E-2
1.309495000E0,6.446996539E-2,-5.099223381E-2,1.072373503E-1,1.351163708E-1
1.319457000E0,1.086755735E-2,-3.591213673E-2,-4.694495559E-2,6.009670725E-2
1.329420000E0,1.982471058E-3,-5.862131534E-2,6.936668873E-2,9.084121481E-2
1.339382000E0,-4.292939394E-2,-5.144199433E-2,-2.584060013E-2,7.181189498E-2
1.349345000E0,-3.905588766E-2,-4.694031436E-2,1.136651945E-1,1.290291902E-1
1.359307000E0,-3.417099580E-2,-5.672279751E-2,5.588067055E-2,8.664745843E-2
1.369270000E0,-1.235300138E-2,-4.304122651E-2,4.839389563E-2,6.593263954E-2
1.379233000E0,1.351204286E-2,-4.522722635E-2,3.341683745E-2,5.783392025E-2
1.389195000E0,3.369789210E-2,-4.261045117E-2,1.789247990E-4,5.432522890E-2
1.399158000E0,5.339775549E-2,-2.623656627E-2,9.201178551E-3,6.020248655E-2
1.409120000E0,-1.116847060E-1,6.123907724E-2,-4.349410433E-1,4.532079095E-1
1.419083000E0,4.210468894E-1,-1.874220276E-1,5.626722997E-1,7.273290977E-1
1.429045000E0,-1.096366091E-1,4.172187539E-2,-1.538022369E-1,1.934322337E-1
1.439008000E0,-6.170160571E-2,-5.777962692E-4,-2.815451878E-1,2.882275400E-1
1.448970000E0,3.326553709E-1,-1.544502729E-1,7.165856338E-1,8.049903435E-1
1.458933000E0,-2.546594893E-1,5.518947484E-2,-9.899178225E-1,1.023637938E0
1.468895000E0,-3.798980741E0,-1.069223316E0,2.884373009E-1,3.957106170E0
1.478858000E0,-4.620649903E0,-1.625282269E0,2.222275239E-1,4.903196208E0
1.488820000E0,-2.333532112E0,-9.369823214E-1,2.590667367E-2,2.514752303E0
1.498783000E0,-3.361711628E0,-1.381842947E0,3.263804680E-1,3.649262831E0
1.508745000E0,-2.125257945E0,-1.513821621E0,-3.852046269E-1,2.637567030E0
1.518708000E0,-1.110169028E0,-1.518270036E0,3.188521779E-1,1.907691245E0
1.528671000E0,-6.709188430E-2,-2.052827607E0,2.758248568E-2,2.054108882E0
1.538633000E0,2.982458955E-1,-1.967979977E0,1.933516341E-1,1.999820156E0
1.548596000E0,-3.135001483E-1,-2.063621714E0,7.717213690E-2,2.088725080E0
1.558558000E0,-7.049046510E-1,-2.420656064E0,-1.509704304E-1,2.525719386E0
1.568520167E0,-5.696438619E-1,-2.314187622E0,3.064888251E-1,2.402892815E0
1.578482167E0,1.893922103E-1,-2.116308489E0,-2.229017079E-2,2.124883028E0
1.588445167E0,2.448477700E-1,-1.803507741E0,-9.237255871E-2,1.822394933E0
1.598407167E0,2.249065263E-5,-1.410736963E0,2.002665514E-1,1.424880862E0
1.608370167E0,6.251063834E-1,-1.324974243E0,-8.596927285E-2,1.467550834E0
1.618332167E0,7.397965217E-1,-1.159789524E0,5.142743111E-2,1.376610117E0
1.628295167E0,4.879725483E-1,-1.011933686E0,5.350202322E-2,1.124717502E0
1.638257167E0,8.763248411E-1,-8.360394256E-1,-1.087739986E-1,1.216034099E0
1.648220167E0,1.160294796E0,-7.915655764E-1,1.271325016E-1,1.410327178E0
1.658182167E0,1.139631321E0,-9.020566099E-1,-3.366885245E-2,1.453822295E0
1.668145167E0,1.110743298E0,-8.760829125E-1,1.032553965E-1,1.418426459E0
1.678108167E0,9.434179131E-1,-9.860707931E-1,2.236150682E-2,1.364871058E0
1.688070167E0,7.242746492E-1,-1.286643844E0,4.087729990E-2,1.477056906E0
1.698033167E0,2.545606165E-1,-1.434555450E0,1.740470517E-1,1.467325057E0
1.707995167E0,-8.573626131E-3,-1.773843939E0,1.202655315E-2,1.773905427E0
1.717958167E0,-1.278750797E-1,-1.850306077E0,1.763192797E-1,1.863081615E0
1.727920167E0,3.088104986E-1,-1.927276631E0,-1.581145585E-2,1.951924471E0
1.737883167E0,4.707449334E-1,-1.812541689E0,1.158105379E-1,1.876251648E0
1.747845167E0,7.519180921E-1,-1.880016219E0,-3.803555310E-2,2.025163821E0
1.757808167E0,6.250662569E-1,-1.691105106E0,1.049621987E-1,1.805979338E0
1.767770167E0,1.063591643E0,-1.469214382E0,1.029010552E-1,1.816702152E0
1.777733167E0,1.472625063E0,-1.438135115E0,5.385285616E-4,2.058362814E0
1.787695167E0,1.744463288E0,-1.702885930E0,-1.518135989E-1,2.442543761E0
1.797658167E0,1.743886460E0,-1.817878589E0,2.082199341E-1,2.527682355E0
1.807620167E0,1.616069103E0,-1.319969026E0,-3.123524129E-2,2.086857259E0
1.817583167E0,1.245294381E0,-1.056934515E0,2.972841382E-2,1.633631673E0
1.827545167E0,9.455672765E-1,-1.140007077E0,9.458514512E-2,1.484136099E0
1.837508167E0,7.678203260E-1,-1.072491763E0,2.868643999E-3,1.319012837E0
1.847471167E0,7.864635884E-1,-1.331874688E0,9.780403733E-2,1.549832504E0
1.857433167E0,5.156344465E-1,-1.569981496E0,-4.681865573E-3,1.652495900E0
1.867396167E0,1.977267767E-1,-1.514513931E0,3.038856447E-2,1.527668744E0
1.877358167E0,2.966142117E-1,-1.462934326E0,3.712794828E-1,1.538182462E0
1.887321167E0,8.252987482E-1,-1.330736674E0,-4.092980790E-1,1.618487886E0
1.897283167E0,5.994870638E-1,-6.296466733E-1,3.866488892E-1,9.514920054E-1
1.907246167E0,6.552881757E-1,-5.894956706E-1,-2.268655354E-1,9.101514765E-1
1.917208167E0,6.541831981E-1,-3.280929348E-1,2.427682078E-1,7.710622759E-1
1.927171167E0,7.122068001E-1,-4.199782377E-1,-3.423193932E-2,8.275216444E-1
1.937133167E0,8.083590721E-1,-4.812686060E-1,-4.328342915E-2,9.417734950E-1
1.947096167E0,6.623452534E-1,-2.908389899E-1,1.492969573E-1,7.386326111E-1
1.957058167E0,6.689042944E-1,-4.854180826E-1,-3.338467777E-2,8.271506554E-1
1.967021167E0,1.120318625E0,-4.488384861E-1,3.601826370E-2,1.207421684E0
1.976983167E0,1.797866347E0,-4.126702779E-1,-1.186628097E-1,1.848432044E0
1.986946167E0,2.392318702E0,-5.277450899E-1,1.305431825E-1,2.453313102E0
1.996908167E0,3.298050945E0,-5.434849539E-1,1.173313987E-1,3.344590048E0
2.006871167E0,4.224340536E0,-3.982604362E-1,-2.109529227E-1,4.248313251E0
2.016834167E0,3.770982810E0,6.385014226E-2,2.960205549E-1,3.783122568E0
2.026796167E0,2.959962305E0,1.320935626E-1,-3.118822968E-1,2.979277785E0
2.036759167E0,1.445745705E0,5.732664312E-1,2.223473918E-1,1.571067601E0
2.046721167E0,1.541453954E-1,4.668000728E-1,-5.054391682E-2,4.941839723E-1
2.056684167E0,2.349516134E-1,6.816271048E-1,1.212917179E-1,7.311152108E-1
2.066646167E0,1.578182874E-1,6.684700656E-1,-7.780012786E-2,6.912392497E-1
2.076609167E0,9.841159045E-2,7.357343879E-1,8.895369172E-2,7.475979468E-1
2.086571167E0,1.149170560E-1,7.123836784E-1,-9.143232644E-2,7.273625680E-1
2.096534167E0,7.513419495E-2,6.652202562E-1,2.128386497E-3,6.694532594E-1
2.106496167E0,1.252611185E-1,5.965881971E-1,4.927448630E-2,6.115846627E-1
2.116459167E0,3.961334202E-2,6.418151676E-1,-7.751069069E-2,6.476911559E-1
2.126421167E0,9.769877831E-2,5.391254892E-1,8.729015887E-2,5.548161103E-1
2.136384167E0,5.089888849E-2,4.297363635E-2,-6.523855448E-2,9.323893640E-2
2.146346167E0,1.125814679E-1,3.506381538E-2,9.148202777E-2,1.492414804E-1
2.156309167E0,5.291760315E-2,6.993512032E-2,-6.434276104E-2,1.087712493E-1
2.166272167E0,1.040394350E-1,2.687377573E-2,9.701992571E-2,1.447731669E-1
2.176234167E0,4.831554294E-2,5.306939322E-2,-4.428447247E-2,8.433188417E-2
2.186197167E0,9.032258886E-2,3.085419470E-2,8.190194964E-2,1.257699517E-1
2.196159167E0,5.265160966E-2,5.738044482E-2,-1.030279398E-2,7.855478986E-2
2.206122167E0,7.410111986E-2,2.996384648E-2,4.613043845E-2,9.228664806E-2
2.216084167E0,3.926174163E-2,4.681519308E-2,-2.287547708E-2,6.524135276E-2
2.226047167E0,5.841526494E-2,4.191759266E-2,4.583106101E-2,8.526379012E-2
2.236009167E0,5.732003577E-2,3.042826158E-2,1.170144796E-2,6.594231940E-2
2.245972167E0,5.475699102E-2,3.249886114E-2,5.047141135E-2,8.125187631E-2
2.255934167E0,4.732101378E-2,5.403263977E-2,-1.898298562E-2,7.429103747E-2
2.265897167E0,5.862361768E-2,4.225896042E-2,-1.523562205E-1,1.686267067E-1
2.275859167E0,6.757482776E-2,4.127967970E-2,1.393865114E-1,1.603089794E-1
2.285822167E0,3.933234219E-2,4.931374487E-2,1.975774169E-3,6.310928822E-2
2.295784167E0,8.847686956E-2,4.647167830E-2,2.028597915E-1,2.261412575E-1
2.305747167E0,5.642924444E-2,4.704317054E-2,-1.239077622E-1,1.440501755E-1
2.315709167E0,9.825794572E-2,2.713743947E-2,3.027162015E-2,1.063364261E-1
2.325672167E0,4.423905605E-2,4.269142597E-2,-2.975998878E-2,6.830306628E-2
2.335635167E0,-1.639580611E0,2.814563467E-1,5.346635520E-2,1.664422094E0
2.345597167E0,-2.508846694E0,3.715657771E-1,1.684284621E-1,2.541798774E0
2.355560167E0,-3.244655634E0,-8.016888974E-2,-7.646462381E-2,3.246546484E0
2.365522167E0,-4.478963974E0,-4.513656162E-1,6.496841311E-2,4.502118401E0
2.375485167E0,-1.744156601E0,-2.375403877E0,-5.188129199E-1,2.992288869E0
2.385447167E0,2.295473791E-1,-2.868080912E0,1.145138009E0,3.096759787E0
2.395410167E0,-2.798348773E-1,-2.759028879E0,-9.049004763E-1,2.917086352E0
2.405372167E0,1.544889558E-1,-2.677660487E0,6.809614724E-1,2.767208169E0
2.415335167E0,4.958422428E-2,-2.241953751E0,4.653448105E-2,2.242984769E0
2.425297167E0,6.294181202E-1,-1.781614450E0,-6.731835061E-1,2.005864714E0
2.435260167E0,6.735808244E-1,-8.192774317E-1,6.707990116E-1,1.254949382E0
2.445222167E0,1.412840353E0,-5.566648338E-1,1.537782633E-1,1.526316269E0
2.455185167E0,2.232116396E0,-2.081970934E-1,-5.361528379E-1,2.305027006E0
2.465147167E0,2.219907848E0,2.317129685E-1,3.494945115E-1,2.259165369E0
2.475110167E0,2.020754606E0,1.855634718E-1,2.203686941E-1,2.041187238E0
2.485072167E0,1.795587687E0,-1.535569828E-1,-3.412534457E-1,1.834167060E0
2.495035167E0,4.534448496E-1,-3.553498219E-2,1.995327258E-1,4.966772344E-1
2.504998167E0,8.323122276E-2,-2.087077015E-1,5.554445565E-2,2.314552390E-1
2.514960167E0,-2.280927380E-1,-4.491991863E-1,-2.794039375E-1,5.760839924E-1
2.524923167E0,-9.264149409E-1,-3.743326430E-1,4.523511279E-1,1.096809515E0
2.534885167E0,-5.457879529E-1,-5.876450634E-1,-1.840849668E-1,8.228599426E-1
2.544848167E0,-8.641779815E-1,-4.574756277E-1,3.963184297E-2,9.786001311E-1
2.554810167E0,-8.826329635E-1,-8.562588049E-1,4.796354055E-2,1.230658600E0
2.564773167E0,-5.552040897E-1,-1.779474369E0,2.201535165E-2,1.864206342E0
2.574735500E0,-1.129541548E-1,-2.056299392E0,1.403548104E-1,2.064176664E0
2.584698500E0,-4.409966756E-1,-2.034246325E0,4.899615884E-2,2.082075120E0
2.594660500E0,-3.461860838E-1,-1.624418050E0,6.135834217E-2,1.662029979E0
2.604623500E0,5.371124391E-4,-1.234442680E0,-8.435544133E-2,1.237321647E0
2.614585500E0,1.040294491E-1,-1.115152756E0,-1.959986687E-3,1.119996267E0
2.624548500E0,-4.869779096E-2,-1.336553484E0,1.948432589E-1,1.351558577E0
2.634510500E0,6.170641961E-1,-8.238324858E-1,6.306222081E-2,1.031234712E0
2.644473500E0,3.895372675E-1,-9.614465600E-1,9.361158371E-2,1.041576641E0
2.654436500E0,2.708210654E-1,-1.046243685E0,4.364595652E-2,1.081607539E0
2.664398500E0,1.298610317E0,-9.510988156E-1,4.765129924E-2,1.610356594E0
2.674361500E0,1.840129583E0,-5.826575712E-1,-1.199217153E-1,1.933894502E0
2.684323500E0,8.392741784E-1,-4.362402946E-1,9.361567676E-2,9.505002031E-1
2.694286500E0,4.015843225E-1,-4.193924198E-1,-7.831468284E-2,5.859122454E-1
2.704248500E0,1.346942671E-1,-8.046673594E-1,1.586829078E-1,8.311512318E-1
2.714211500E0,-3.002188192E-1,-1.066432294E0,2.308252698E-1,1.131675520E0
2.724173500E0,-8.380512332E-1,-9.599180248E-1,-1.185131210E-1,1.279772575E0
2.734136500E0,-5.390257942E-1,-1.468974938E0,2.773714453E-1,1.589141622E0
2.744098500E0,3.524399002E-1,-1.766484925E0,-4.932477236E-1,1.867612431E0
2.754061500E0,1.044399181E0,-1.885290261E0,3.413037318E-1,2.182103860E0
2.764023500E0,1.899672657E0,-2.120390869E0,1.533829916E-1,2.851024374E0
2.773986500E0,1.991548056E0,-1.808111838E0,-3.118127149E-1,2.707906802E0
2.783948500E0,1.511266534E0,-1.114427994E0,5.564303970E-1,1.958440981E0
2.793911500E0,1.892377379E0,-9.704348268E-1,-7.292355001E-2,2.127945897E0
2.803873500E0,2.399080276E0,-8.532599873E-1,-3.376959997E-1,2.568594434E0
2.813836500E0,2.173538697E0,-2.049249915E-1,5.899103844E-1,2.261472746E0
2.823799500E0,2.218425579E0,-2.657892257E-1,-2.999346811E-1,2.254332889E0
2.833761500E0,2.029221959E0,-3.117452161E-2,-1.143803090E-1,2.032682087E0
2.843724500E0,1.392544228E0,1.822305223E-1,4.872280151E-1,1.486532384E0
2.853686500E0,1.499289389E0,1.546610650E-1,-5.603094399E-1,1.608022197E0
2.863649500E0,1.766261854E0,8.799424403E-1,5.307020634E-1,2.043434441E0
2.873611500E0,6.643979184E-1,6.165834088E-1,-2.943079054E-1,9.530041119E-1
2.883574500E0,-1.912046462E-1,7.357384810E-1,3.223511517E-2,7.608609806E-1
2.893536500E0,2.019441175E-1,5.211428891E-1,8.248667121E-2,5.649560942E-1
2.903499500E0,-4.651247633E-2,4.551305287E-1,-2.113405931E-1,5.039564018E-1
2.913461500E0,9.262130292E-2,1.864536556E-1,1.892094666E-1,2.813252454E-1
2.923424500E0,-8.285730702E-3,-1.111250909E-1,-8.261414051E-2,1.387174660E-1
2.933386500E0,4.597876715E-2,-4.734574568E-2,7.230666876E-2,9.789750257E-2
2.943349500E0,-3.272024678E-2,-3.450507738E-2,-4.998199940E-2,6.898851482E-2
2.953311500E0,2.630650445E-2,-3.718801746E-2,8.219197154E-2,9.397074547E-2
2.963274500E0,-2.580219580E-2,-3.312069425E-2,-2.647736192E-2,4.963652275E-2
2.973236500E0,4.349592975E-3,-5.179580569E-2,8.114707410E-2,9.636686195E-2
2.983199500E0,-2.595678157E-2,-3.060388818E-2,9.598204494E-3,4.126109561E-2
2.993162500E0,1.788205998E-2,-2.846557969E-2,6.153843641E-2,7.012158336E-2
3.003124500E0,-1.920556810E-3,-1.224381376E-2,8.846252561E-3,1.522680854E-2
3.013087500E0,2.473021160E-2,-1.550484248E-2,4.836290538E-2,5.648853090E-2
3.023049500E0,1.556975571E-2,-3.199556205E-2,-1.487531662E-3,3.561384610E-2
3.033012500E0,4.892852757E-2,-3.231271869E-2,2.036292851E-2,6.207061669E-2
3.042974500E0,3.891285928E-2,-4.280319002E-2,4.342142344E-3,5.801015336E-2
3.052937500E0,3.723695363E-2,-3.617111357E-2,1.271886349E-2,5.344819605E-2
3.062899500E0,3.225110593E-2,-3.979329921E-2,-7.601380348E-6,5.122148528E-2
3.072862500E0,3.655371562E-2,-4.574401058E-2,8.822863698E-3,5.921597380E-2
3.082824500E0,4.763244654E-3,-5.185857190E-2,-2.250593305E-3,5.212547505E-2
3.092787500E0,2.526341143E-2,-5.598626761E-2,-1.167805910E-2,6.252262936E-2
3.102749500E0,1.692019528E-2,-6.162671110E-2,-4.580357909E-2,7.862641024E-2
3.112712500E0,9.305213308E-3,-3.745256742E-2,1.336655957E-1,1.391250274E-1
3.122674500E0,2.873633319E-2,-3.771172699E-2,6.944387197E-2,8.408568577E-2
3.132637500E0,-3.130037379E-3,-3.363384224E-2,3.560895860E-2,4.908187457E-2
3.142599500E0,5.357081937E-3,-2.590671021E-2,-2.531727433E-2,3.661721372E-2
3.152562500E0,-1.782444663E-2,-7.283364907E-3,-4.227478445E-2,4.645337127E-2
3.162525500E0,-8.209258642E0,-6.455408672E-1,-2.679901725E-1,8.238960443E0
3.172487500E0,-9.885748340E0,-1.150715376E0,2.624066663E-1,9.955954167E0
3.182450500E0,-1.238158512E-1,2.457979426E-1,6.083846623E-1,6.677416348E-1
3.192412500E0,7.364769112E-1,2.001568795E-1,-1.421341181E-1,7.763138056E-1
3.202375500E0,1.602546102E0,1.189038977E-1,-6.640255970E-1,1.738741539E0
3.212337500E0,1.085744185E0,-2.552649684E-1,4.743758351E-1,1.212036746E0
3.222300500E0,1.458147795E0,-4.898945647E-1,3.022092479E-1,1.567648592E0
3.232262500E0,7.158055421E-1,-1.230529869E0,-6.672924364E-1,1.572215166E0
3.242225500E0,-1.407810578E0,-1.146762366E0,5.254635429E-1,1.890266246E0
3.252187500E0,-1.665250765E0,-1.449972803E0,5.820692682E-1,2.283481087E0
3.262150500E0,-1.899174036E0,-2.257345085E0,-1.082573386E0,3.142361212E0
3.272112500E0,-2.788890316E0,-2.098602389E0,6.416483027E-1,3.548767917E0
3.282075500E0,-2.218370761E0,-2.318305670E0,1.514808923E-1,3.212266563E0
3.292037500E0,-1.337286286E0,-2.573662202E0,-4.690373272E-1,2.938038079E0
3.302000500E0,-1.209006707E0,-2.359336898E0,5.493845022E-1,2.707395639E0
3.311962500E0,2.786549457E-1,-2.289657237E0,-2.091765386E-1,2.316016767E0
3.321925500E0,-5.386533631E-1,-1.732301079E0,1.313232011E-1,1.818862353E0
3.331888500E0,-6.308365086E-1,-1.602060344E0,1.980598122E-1,1.733141580E0
3.341850500E0,-4.978880008E-1,-1.600564480E0,5.418614745E-2,1.677091308E0
3.351813500E0,-5.612168090E-2,-1.821979533E0,6.327915251E-2,1.823941697E0
3.361775500E0,2.221058470E-1,-1.947244142E0,7.206459403E-2,1.961194550E0
3.371738500E0,6.638636291E-1,-2.006296781E0,9.865246832E-2,2.115578881E0
3.381700500E0,8.115387880E-1,-2.300905087E0,8.723577976E-2,2.441386800E0
3.391663500E0,1.321627735E0,-2.540228700E0,8.461798131E-2,2.864720217E0
3.401625500E0,1.871394791E0,-2.639674636E0,-9.389692783E-2,3.237100134E0
3.411588500E0,1.800117817E0,-2.516499237E0,-7.420116663E-4,3.094057711E0
3.421550500E0,1.759223268E0,-2.196989832E0,3.079523832E-1,2.831336345E0
3.431513500E0,1.452606828E0,-2.106552410E0,8.135874331E-2,2.560126734E0
3.441475500E0,1.045233506E0,-1.856533508E0,-2.157447159E-1,2.141442395E0
3.451438500E0,1.269411807E0,-1.480893172E0,7.245284915E-2,1.951845367E0
3.461400500E0,6.446112330E-1,-1.411102268E0,1.641132170E-1,1.560021282E0
3.471363500E0,6.397525440E-2,-1.850493481E0,-1.546588540E-2,1.851663616E0
3.481325500E0,-2.312733858E-1,-2.263452209E0,1.933598202E-1,2.283438482E0
3.491288500E0,2.392237536E-1,-2.567663251E0,2.590895408E-1,2.591765801E0
3.501251500E0,6.811904640E-1,-2.629651923E0,-9.565050781E-2,2.718131473E0
3.511213500E0,1.332431051E0,-2.440224940E0,1.048095864E-1,2.782275204E0
3.521176500E0,1.466994779E0,-2.394436710E0,4.482709408E-2,2.808453366E0
3.531138500E0,2.097496680E0,-2.403786262E0,-6.903749049E-2,3.190994656E0
3.541101500E0,2.535803235E0,-2.271371532E0,1.161602014E-1,3.406305898E0
3.551063500E0,2.200094119E0,-2.383546563E0,2.161657155E-2,3.243790318E0
3.561026500E0,2.362570116E0,-1.790142760E0,-7.038235009E-2,2.965013040E0
3.570988750E0,1.504123721E0,-1.252343785E0,3.534267640E-1,1.988885014E0
3.580951750E0,1.994159423E0,-6.786966996E-1,3.639804035E-1,2.137705019E0
3.590913750E0,2.995897246E0,-4.617506001E-1,-8.455705333E-1,3.146999118E0
3.600876750E0,1.867748322E0,1.581467181E-2,5.451236361E-1,1.945737309E0
3.610838750E0,2.126794008E0,1.673541642E-1,2.816229558E-1,2.151876311E0
3.620801750E0,3.020292999E0,3.783200787E-1,-6.435001159E-1,3.111171529E0
3.630763750E0,2.316968412E0,8.257522729E-1,5.113226366E-1,2.512301788E0
3.640726750E0,3.322119254E0,1.025931116E0,-4.554980993E-2,3.477223861E0
3.650688750E0,2.988817437E0,1.370284025E0,-2.284840447E-1,3.295893345E0
3.660651750E0,1.902045604E0,1.573385891E0,2.906282526E-1,2.485515122E0
3.670614750E0,9.074503009E-1,1.315559641E0,-2.726626825E-1,1.621267454E0
3.680576750E0,1.346180249E-2,1.108273653E0,1.087383306E-1,1.113676675E0
3.690539750E0,1.457729500E-1,8.292294659E-1,-3.377468705E-2,8.426220918E-1
3.700501750E0,5.746604257E-2,8.506224545E-1,-5.548189044E-2,8.543647619E-1
3.710464750E0,1.024075045E-1,6.760433793E-1,5.229223430E-2,6.857524520E-1
3.720426750E0,1.005883261E-2,6.088024458E-1,-7.928649008E-2,6.140260138E-1
3.730389750E0,1.991053218E-2,4.099544290E-1,-3.737598717E-2,4.121359333E-1
3.740351750E0,5.281295626E-2,-3.144543042E-2,5.094035804E-2,7.983071791E-2
3.750314750E0,2.625241999E-2,5.312814860E-2,-3.099024296E-3,5.934133197E-2
3.760276750E0,4.520414356E-2,4.145632043E-2,9.026931524E-3,6.199618207E-2
3.770239750E0,8.733426880E-2,2.928379702E-2,7.713529944E-2,1.201443702E-1
3.780201750E0,8.874417868E-2,5.052530623E-2,1.531385779E-2,1.032610772E-1
3.790164750E0,9.520422821E-2,4.497992568E-2,6.426440835E-2,1.233570142E-1
3.800126750E0,7.965029653E-2,3.490063238E-2,1.636460245E-2,8.848742335E-2
3.810089750E0,7.621293772E-2,4.272956992E-2,4.795009196E-2,9.966664106E-2
3.820051750E0,7.022733492E-2,4.128270381E-2,2.953954875E-2,8.665290038E-2
3.830014750E0,6.312304556E-2,4.801861402E-2,1.621666789E-2,8.095237174E-2
3.839977750E0,5.050696059E-2,3.797534505E-2,-1.895667315E-3,6.321924908E-2
3.849939750E0,4.242248146E-2,4.145185280E-2,6.488655210E-3,5.966595076E-2
3.859902750E0,2.634318202E-2,4.670840831E-2,1.592255294E-2,5.593895188E-2
3.869864750E0,4.455722224E-2,5.073921382E-2,2.535820484E-2,7.213080081E-2
3.879827750E0,3.192826197E-2,4.895844430E-2,1.009346366E-2,5.931459508E-2
3.889789750E0,2.718070430E-2,4.773691527E-2,-1.205695868E-2,5.624032377E-2
3.899752750E0,2.938786147E-2,5.786113163E-2,9.700530767E-4,6.490375920E-2
3.909714750E0,3.775718909E-2,4.543768044E-2,3.615041077E-2,6.926066943E-2
3.919677750E0,2.848112278E-2,4.237256999E-2,-8.155696392E-3,5.170226713E-2
3.929639750E0,2.896646909E-2,4.341249730E-2,-2.611483455E-2,5.835825423E-2
3.939602750E0,4.676710430E-2,5.273093993E-2,1.550155342E-2,7.216655894E-2
3.949564750E0,6.832803137E-2,3.962513695E-2,2.194050729E-2,8.197717492E-2
3.959527750E0,8.442747172E-2,3.142542198E-2,6.490350902E-2,1.110316199E-1
3.969489750E0,9.567365913E-2,4.604669536E-2,4.709230542E-2,1.161526256E-1
3.979452750E0,9.129854397E-2,3.890073088E-2,8.407009721E-2,1.300633393E-1
3.989415750E0,9.068460460E-2,3.126497073E-2,2.958691120E-2,1.003821758E-1
3.999377750E0,6.706117728E-2,4.000956397E-2,3.752450645E-2,8.663749356E-2
4.009340750E0,-1.148338154E-1,6.099752328E-2,-7.684235394E-2,1.510372483E-1
4.019302750E0,-1.509572888E0,1.900609308E-1,5.069243610E-2,1.522334780E0
4.029265750E0,-2.836529044E0,-2.416742120E-1,3.335783905E-1,2.866282956E0
4.039227750E0,-4.406468148E0,-6.098716092E-1,-5.394389731E-1,4.481060067E0
4.049190750E0,-5.596585863E0,-6.090118858E-1,3.347168434E-1,5.639565956E0
4.059152750E0,-5.073655334E0,-1.017482840E0,3.040043432E-1,5.183596089E0
4.069115750E0,-3.282260247E0,-1.496811632E0,-5.735288250E-1,3.652754126E0
4.079077750E0,-2.011566876E0,-1.498024929E0,3.761455357E-2,2.508364974E0
4.089040750E0,-1.650030170E0,-1.496322512E0,4.118112123E-1,2.265208401E0
4.099002750E0,-5.722909695E-1,-1.497087328E0,-7.650789320E-2,1.604568752E0
4.108965750E0,-1.296080665E-1,-1.582801808E0,-1.465908659E-1,1.594850682E0
4.118927750E0,-4.306843434E-2,-1.490014097E0,7.522735298E-2,1.492533435E0
4.128890750E0,6.575516329E-1,-1.364646285E0,2.593322003E-1,1.536843136E0
4.138852750E0,1.409906804E0,-1.443811300E0,1.710398287E-1,2.025261190E0
4.148815750E0,1.742506517E0,-1.698471867E0,5.057958484E-2,2.433863994E0
4.158777750E0,1.675748418E0,-1.967408265E0,6.004505754E-3,2.584349840E0
4.168740750E0,1.512840750E0,-1.852107020E0,4.947212219E-2,2.391952140E0
4.178703750E0,1.579585401E0,-1.644237334E0,1.300724816E-1,2.283752460E0
4.188665750E0,1.560762922E0,-1.722533598E0,-8.860987544E-2,2.326145869E0
4.198628750E0,1.264877876E0,-1.939463398E0,8.075004816E-4,2.315477265E0
4.208590750E0,1.047102861E0,-2.026822847E0,2.101331431E-1,2.290980399E0
4.218553750E0,7.187168708E-1,-2.161190401E0,-4.203446388E-2,2.277951884E0
4.228515750E0,2.981348715E-1,-2.054198195E0,1.555020225E-1,2.081536813E0
4.238478750E0,3.079401406E-1,-1.728622011E0,-7.196577609E-2,1.757310519E0
4.248440750E0,-1.725412109E-1,-1.442586308E0,3.395244241E-2,1.453264771E0
4.258403750E0,-5.433304413E-1,-8.880673657E-1,-5.778569341E-2,1.042694011E0
4.268365750E0,-4.189276392E-1,-7.201119433E-1,1.579449892E-2,8.332532892E-1
4.278328750E0,-5.833390185E-2,-7.891193207E-1,1.066894662E-1,7.984327076E-1
4.288290750E0,7.847882880E-1,-1.003796189E0,-8.752989471E-2,1.277169107E0
4.298253750E0,1.292325730E0,-6.493351255E-1,2.491130215E-1,1.467582772E0
4.308215750E0,2.135970190E0,-3.795129472E-1,-3.169366300E-2,2.169655092E0
4.318178750E0,1.650062330E0,-9.863415923E-1,-2.056237704E-1,1.933353709E0
4.328140750E0,4.222574458E-1,-1.425644878E0,3.125857168E-1,1.519366479E0
4.338103750E0,2.000937296E-2,-1.481043884E0,1.844141650E-1,1.492615136E0
4.348066750E0,4.965712444E-1,-1.195413758E0,-1.201287067E-1,1.300010754E0
4.358028750E0,5.935188839E-1,-9.425617345E-1,8.774624169E-2,1.117312262E0
4.367991750E0,3.913305720E-1,-1.029091755E0,-2.727843046E-2,1.101323554E0
4.377953750E0,-4.892174206E-1,-9.873579115E-1,4.615031898E-2,1.102877682E0
4.387916750E0,-1.159022734E0,-8.532514358E-1,-5.376748681E-2,1.440230070E0
4.397878750E0,-9.896622261E-1,-6.472903541E-1,1.939375252E-1,1.198343810E0
4.407841750E0,-2.316684200E-1,-9.749169369E-1,-8.968283951E-2,1.006069730E0
4.417803750E0,-2.404146669E-2,-1.080764039E0,-4.743495226E-2,1.082071612E0
4.427766750E0,2.693071482E-1,-9.000280646E-1,3.408418018E-1,9.993748001E-1
4.437728750E0,5.383489059E-1,-1.169771744E0,-3.662374288E-1,1.338773817E0
4.447691750E0,7.001301071E-1,-1.529347879E0,1.784266162E-1,1.691426368E0
4.457653750E0,8.242203755E-1,-1.967909810E0,1.012924862E-1,2.135946726E0
4.467616750E0,1.088568025E0,-1.691979703E0,1.615000963E-3,2.011909111E0
4.477578750E0,2.182148429E0,-1.813732913E0,9.654864013E-2,2.839140801E0
4.487541750E0,2.033516739E0,-1.720022657E0,3.939427060E-1,2.692370540E0
4.497503750E0,1.473378477E0,-1.592163639E0,-4.002986294E-1,2.205916631E0
4.507466750E0,1.804342869E0,-1.222804821E0,2.861416841E-1,2.198358907E0
4.517429750E0,2.308162359E0,-8.267196947E-1,6.759615183E-2,2.452681832E0
4.527391750E0,2.096028591E0,-4.251753160E-1,-1.637799257E-1,2.144978733E0
4.537354750E0,2.203328945E0,1.432373963E-1,2.630650628E-1,2.223595876E0
4.547316750E0,2.320296793E0,4.256327876E-1,7.335215092E-2,2.360152753E0
4.557279750E0,-4.243429283E-1,2.270326634E0,-4.118193984E-1,2.346070153E0
4.567241417E0,4.210859561E-1,2.584594449E0,-2.085929865E-1,2.626966479E0
4.577204417E0,2.078634440E0,1.310326822E0,-3.791878420E-1,2.486254398E0
4.587166417E0,2.146531139E0,5.440026518E-1,4.239020848E-1,2.254601471E0
4.597129417E0,1.757540586E0,-2.968209474E-1,7.055174392E-1,1.916978467E0
4.607091417E0,5.104442386E-1,-1.436229654E-1,-9.107231337E-1,1.053848900E0
4.617054417E0,-1.411645218E-1,2.845304472E-2,7.314106643E-2,1.615135089E-1
4.627016417E0,3.317535110E-1,-1.304362881E-1,6.716053426E-1,7.603471270E-1
4.636979417E0,-2.592370369E-1,5.133409493E-2,-7.112874717E-1,7.587943713E-1
4.646941417E0,1.793695894E-1,-9.333720312E-2,3.899145591E-1,4.392250522E-1
4.656904417E0,-4.448780939E-3,-3.198688259E-2,-2.583592236E-2,4.135755305E-2
4.666866417E0,-6.880581741E-2,-1.313851085E-3,-1.560341191E-1,1.705362514E-1
4.676829417E0,1.270259361E-1,-7.113327876E-2,3.464674079E-1,3.758127147E-1
4.686792417E0,-1.027506356E-1,9.248595815E-3,-2.478161091E-1,2.684325866E-1
4.696754417E0,7.044442650E-2,-5.871699041E-2,1.872038716E-1,2.084595686E-1
4.706717417E0,2.332006646E-3,-2.480630077E-2,-4.049898505E-2,4.754953841E-2
4.716679417E0,2.117305110E-2,-1.530543415E-2,1.728436947E-3,2.618285511E-2
4.726642417E0,5.202070422E-2,-3.803175241E-2,7.805623591E-2,1.012192858E-1
4.736604417E0,6.906260611E-3,-2.342405554E-2,-7.701426208E-2,8.079343647E-2
4.746567417E0,6.888307831E-2,-4.708603794E-2,7.342816472E-2,1.111470594E-1
4.756529417E0,2.207490189E-2,-4.052038221E-2,-5.022056580E-2,6.820049777E-2
4.766492417E0,4.814926731E-2,-6.193248393E-2,4.693852365E-2,9.141777459E-2
4.776454417E0,2.462286722E-2,-3.710149694E-2,1.444613099E-2,4.681343147E-2
4.786417417E0,1.901284296E-2,-4.939391568E-2,2.088450015E-2,5.689823767E-2
4.796379417E0,3.251424663E-2,-3.967809079E-2,2.686327815E-2,5.790650081E-2
4.806342417E0,1.732534109E-2,-3.135560257E-2,8.145171404E-3,3.673806029E-2
4.816304417E0,3.670665457E-2,-3.299735455E-2,4.945458055E-2,6.987101999E-2
4.826267417E0,1.184745020E-2,-3.074498881E-2,-3.544582129E-3,3.313880618E-2
4.836230417E0,3.645407313E-2,-2.550193671E-2,2.908229649E-2,5.315099428E-2
4.846192417E0,2.838251268E-2,-1.548750183E-2,1.021274686E-2,3.390766783E-2
4.856155417E0,3.177749289E-2,-2.947568620E-2,3.820219874E-2,5.777571393E-2
4.866117417E0,3.389589800E-2,-2.699394515E-2,3.041370749E-2,5.293957480E-2
4.876080417E0,3.186786435E-2,-4.120103465E-2,-5.895455182E-2,7.866845120E-2
4.886042417E0,1.513561365E-2,-2.708861522E-2,4.357578993E-2,5.349513383E-2
4.896005417E0,3.732276381E-2,-2.436478117E-2,5.629874647E-2,7.180654645E-2
4.905967417E0,3.125948440E-2,-3.035048448E-2,2.801985741E-2,5.180173435E-2
4.915930417E0,8.602884136E-2,-8.342812775E-2,6.729618967E-2,1.374408643E-1
4.925892417E0,-4.954791673E-1,-5.057795858E-1,-1.862273866E-1,7.321155879E-1
4.935855417E0,-6.026682488E0,-1.885206792E0,2.164159763E-1,6.318365480E0
4.945817417E0,-3.696546293E0,-1.980257522E0,6.946199834E-2,4.194126765E0
4.955780417E0,-1.307042002E0,-4.536855356E-1,-3.589137912E-2,1.384007786E0
4.965742417E0,-3.873952863E-1,-3.236075722E-1,4.125134629E-1,6.518928790E-1
4.975705417E0,6.639746531E-1,-5.189163790E-1,-5.882129377E-1,1.027682348E0
4.985667417E0,9.409526539E-1,-5.444005548E-1,7.346079218E-1,1.312026166E0
4.995630417E0,2.430980821E-1,-1.128046598E0,-7.234637135E-1,1.361978542E0
5.005593417E0,1.867639600E-1,-1.070280712E0,5.445108479E-1,1.215266902E0
5.015555417E0,-7.063537373E-1,-1.398538063E0,2.125053585E-2,1.566938385E0
5.025518417E0,-1.283347476E0,-1.608465530E0,-2.509560639E-1,2.072949843E0
5.035480417E0,-1.345686835E0,-1.561068439E0,5.801110357E-1,2.141106383E0
5.045443417E0,-1.059415854E0,-1.538284763E0,-5.185082799E-1,1.938435658E0
5.055405417E0,-9.424042252E-1,-9.238108103E-1,3.332404214E-1,1.361102977E0
5.065368417E0,-5.043828322E-1,-8.816123320E-1,-5.627126455E-2,1.017255524E0
5.075330417E0,1.803797507E-1,-6.050937762E-1,-7.035662234E-2,6.353151869E-1
5.085293417E0,4.254744742E-1,-4.069752726E-1,8.548629284E-2,5.949498357E-1
5.095255417E0,7.573594379E-1,-3.260862069E-1,7.381291151E-2,8.278731053E-1
5.105218417E0,6.327231127E-1,-5.599149721E-1,-5.819967628E-2,8.468946308E-1
5.115180417E0,3.663640575E-1,-5.422639822E-1,1.215776467E-1,6.656229963E-1
5.125143417E0,4.514304472E-1,-6.971910772E-1,-5.056672096E-3,8.305964223E-1
5.135105417E0,3.438245396E-1,-7.348217107E-1,4.880437016E-2,8.127485017E-1
5.145068417E0,7.901441914E-1,-7.852171082E-1,1.017006218E-2,1.114000530E0
5.155030417E0,7.828333446E-1,-7.998751277E-1,1.575877243E-1,1.130248714E0
5.164993417E0,6.754699867E-1,-9.587956517E-1,-9.065406203E-2,1.176336246E0
5.174956417E0,3.086779861E-1,-1.050346604E0,1.926657557E-1,1.111589034E0
5.184918417E0,8.222623622E-1,-1.190682191E0,7.780012786E-2,1.449100525E0
5.194881417E0,1.430911172E0,-1.411578523E0,4.002594531E-2,2.010388716E0
5.204843417E0,1.465414423E0,-1.576749940E0,4.758990347E-2,2.153101159E0
5.214806417E0,1.081775753E0,-1.637502072E0,1.308782279E-2,1.962606203E0
5.224768417E0,5.470995199E-1,-1.635549979E0,6.044910014E-2,1.725687026E0
5.234731417E0,8.826312642E-3,-1.525340635E0,-1.658796608E-2,1.525456364E0
5.244693417E0,-3.712040903E-1,-1.454734483E0,2.177795470E-2,1.501505635E0
5.254656417E0,-2.677612357E-1,-1.453019933E0,9.757073343E-2,1.480703567E0
5.264618417E0,1.746953800E-1,-1.322960169E0,-6.031227529E-2,1.335806744E0
5.274581417E0,3.049544243E-1,-1.079842591E0,8.312167883E-2,1.125151739E0
5.284543417E0,5.743092822E-1,-8.346815559E-1,5.277170599E-2,1.014548818E0
5.294506417E0,8.897374767E-1,-7.416711391E-1,1.613328660E-1,1.169502950E0
5.304468417E0,8.974568977E-1,-8.890249935E-1,-9.575400352E-3,1.263283820E0
5.314431417E0,7.492665260E-1,-9.853749745E-1,5.726763010E-3,1.237900223E0
5.324393417E0,7.284580397E-1,-9.827579800E-1,6.369839787E-2,1.224957897E0
5.334356417E0,1.683808366E0,-1.184512721E0,3.844251931E-2,2.059067465E0
5.344319417E0,2.043291530E0,-1.210757290E0,1.985147256E-1,2.383355112E0
5.354281417E0,1.901349493E0,-1.230068086E0,-1.103813982E-1,2.267240931E0
5.364244417E0,1.820371841E0,-1.394457876E0,1.017813134E-1,2.295348741E0
5.374206417E0,1.548808435E0,-1.758961021E0,1.064760429E-1,2.346079408E0
5.384169417E0,1.175022909E0,-1.417951404E0,-1.302712870E-1,1.846140739E0
5.394131417E0,6.873209772E-1,-6.839469876E-1,2.053717554E-2,9.698532792E-1
5.404094417E0,3.157924761E-1,-8.577097915E-2,-2.985009438E-1,4.429270394E-1
5.414056417E0,4.161922478E-2,3.133510808E-1,1.816145182E-1,3.645612335E-1
5.424019417E0,1.057306764E0,9.259562999E-2,8.006715184E-1,1.329491039E0
5.433981417E0,2.932349414E0,-7.681404976E-2,-3.332889533E-1,2.952228820E0
5.443944417E0,3.104847538E0,9.180963630E-2,-6.945340294E-1,3.182905082E0
5.453906417E0,2.141660116E0,8.093435971E-1,1.169365363E0,2.570828750E0
5.463869417E0,2.621759644E0,4.255940132E-1,-9.049203569E-1,2.805999777E0
5.473831417E0,1.343485943E0,1.149066826E0,1.795557135E-1,1.776949438E0
5.483794417E0,7.022495766E-1,1.100119711E0,4.691718131E-1,1.386917459E0
5.493756417E0,1.501121048E-1,6.085350819E-1,-6.993205601E-1,9.390941570E-1
5.503719417E0,2.717891816E-1,1.181816277E0,5.649380958E-1,1.337801975E0
5.513682417E0,1.869125158E-1,6.651777908E-1,-3.809694886E-1,7.890092099E-1
5.523644417E0,-2.079691068E-2,8.857014361E-1,1.038681847E-1,8.920135342E-1
5.533607417E0,2.721636775E-1,8.440171473E-1,1.499600315E-1,8.994031484E-1
5.543569417E0,-1.659553777E-2,6.073197381E-1,-2.434254348E-1,6.544987536E-1
5.553532417E0,1.789416645E-1,8.077320313E-1,2.129719663E-1,8.542881318E-1
5.563494417E0,3.031991450E-2,5.780312176E-1,-1.949321365E-1,6.107683060E-1
5.573457375E0,1.132209888E-1,5.051313489E-1,1.421656930E-1,5.368312176E-1
5.583419375E0,3.984755498E-2,4.831330455E-2,-5.961587191E-2,8.646418459E-2
5.593382375E0,9.631935619E-2,1.744205243E-2,7.794923186E-2,1.251308368E-1
5.603344375E0,4.619622876E-2,6.347508905E-2,-7.876199484E-4,7.850986452E-2
5.613307375E0,8.444457483E-2,5.163173648E-2,5.340028167E-2,1.124647167E-1
5.623269375E0,7.543614426E-2,5.052516919E-2,2.590316534E-4,9.079356629E-2
5.633232375E0,6.338634842E-2,3.934722975E-2,1.013907194E-2,7.529166245E-2
5.643194375E0,7.442254770E-2,3.915583394E-2,6.806802213E-2,1.081903442E-1
5.653157375E0,5.732176253E-2,4.424557935E-2,1.013965666E-2,7.311818097E-2
5.663120375E0,4.909790039E-2,4.617899775E-2,2.480973601E-2,7.182358009E-2
5.673082375E0,2.509160378E-2,2.367808965E-2,-1.979691803E-2,3.977635571E-2
5.683045375E0,3.882112195E-2,3.176173738E-2,-5.726178288E-3,5.048441927E-2
5.693007375E0,3.011523454E-2,2.053966974E-2,-5.722669959E-3,3.689924574E-2
5.702970375E0,2.053233331E-2,2.202296217E-2,1.912916601E-2,3.567229410E-2
5.712932375E0,2.118549242E-2,2.953847067E-2,6.259444356E-3,3.688532205E-2
5.722895375E0,2.941160665E-2,2.759700322E-2,1.838773906E-2,4.432545702E-2
5.732857375E0,4.827461243E-2,3.988621512E-2,1.330241561E-2,6.401798671E-2
5.742820375E0,7.514514478E-2,4.455961137E-2,4.623627305E-2,9.884404228E-2
5.752782375E0,5.932134583E-2,4.274628930E-2,3.890269518E-2,8.282322749E-2
5.762745375E0,6.016111563E-2,3.371704630E-2,-1.348812318E-1,1.514897545E-1
5.772707375E0,8.225671118E-2,4.746747740E-2,1.671923608E-1,1.922826395E-1
5.782670375E0,4.343336911E-2,6.057169067E-2,1.211835444E-2,7.551318943E-2
5.792632375E0,3.172699670E-2,5.248374889E-2,9.953481317E-2,1.169116130E-1
5.802595375E0,-9.434560662E-1,2.081399003E-1,-2.101740736E-1,9.887389484E-1
5.812557375E0,-2.802983568E0,1.967393647E-1,2.568395323E-1,2.821593487E0
5.822520375E0,-2.950016191E0,-7.055850477E-1,-2.447977763E-1,3.043085891E0
5.832483375E0,-3.740434909E0,-9.823362496E-1,2.159125310E-1,3.873300406E0
5.842445375E0,-3.557603878E0,-1.240435199E0,1.871366286E-1,3.772299690E0
5.852408375E0,-3.130416535E0,-1.356104673E0,-1.841305751E-1,3.416494056E0
5.862370375E0,-2.549636285E0,-1.303272302E0,6.686875820E-3,2.863426024E0
5.872333375E0,-1.914213952E0,-1.256171810E0,1.591892767E-1,2.295108689E0
5.882295375E0,-1.490446645E0,-1.210439129E0,1.414920938E-1,1.925256892E0
5.892258375E0,-5.134327871E-1,-1.209092369E0,-8.966705203E-3,1.313620183E0
5.902220375E0,6.195826650E-1,-1.265571941E0,2.940336710E-1,1.439448094E0
5.912183375E0,1.681025822E0,-1.328895532E0,1.031863993E-1,2.145334142E0
5.922145375E0,2.600545361E0,-1.625125563E0,-5.468117273E-1,3.114943392E0
5.932108375E0,2.432376954E0,-1.366520757E0,2.035977101E-1,2.797371740E0
5.942070375E0,2.650873515E0,-9.513590898E-1,4.560442293E-1,2.853101970E0
5.952033375E0,2.706949775E0,-1.131962624E0,-1.864279461E-1,2.940012219E0
5.961995375E0,2.024715656E0,-1.212853590E0,-1.721823746E-1,2.366460245E0
5.971958375E0,9.703344740E-1,-1.304360323E0,3.998676896E-1,1.674156209E0
5.981920375E0,4.465962251E-1,-1.520643275E0,-6.086951494E-2,1.586035704E0
5.991883375E0,-1.150245077E-1,-1.358327346E0,-1.986848795E-1,1.377591920E0
6.001846375E0,-6.470221862E-1,-1.030125543E0,3.269312757E-1,1.259635028E0
6.011808375E0,-9.044775765E-1,-8.589838998E-1,-1.802070934E-1,1.260320445E0
6.021771375E0,-1.636309094E0,-5.877479379E-1,1.325768441E-1,1.743712049E0
6.031733375E0,-1.440229003E0,-4.482520470E-1,1.469832140E-1,1.515517583E0
6.041696375E0,-7.795049267E-2,-7.277389053E-1,-2.174690598E-1,7.635266764E-1
6.051658375E0,2.013462397E-1,-9.348282802E-1,2.277098733E-1,9.830035647E-1
6.061621375E0,1.240636197E0,-9.277018400E-1,2.726726228E-1,1.572946037E0
6.071583375E0,1.906860347E0,-1.155547880E0,-4.032807094E-1,2.265842584E0
6.081546375E0,1.372390776E0,-1.032085822E0,3.828072685E-1,1.759317763E0
6.091508375E0,1.161834149E0,-9.190350238E-1,-2.029761511E-1,1.495220145E0
6.101471375E0,4.814157365E-1,-6.393303202E-1,2.491539520E-1,8.382016831E-1
6.111433375E0,1.700980980E-1,-4.195839161E-1,-2.586574316E-1,5.214285114E-1
6.121396375E0,-9.127920248E-1,-2.843302349E-1,2.584375763E-1,9.903650558E-1
6.131358375E0,-1.290541598E0,-3.715512322E-1,-6.432521939E-2,1.344502015E0
6.141321375E0,-8.409858046E-1,-1.848882098E-1,5.114501059E-2,8.625871467E-1
6.151283375E0,-8.383700527E-1,-1.399529056E-1,-7.526243627E-2,8.532968975E-1
6.161246375E0,-1.472088873E0,-3.450500063E-1,1.736126035E-1,1.521921973E0
6.171209375E0,-1.163286963E0,-8.317017417E-1,-4.461600959E-2,1.430718328E0
6.181171375E0,-1.211487462E0,-1.304382542E0,1.009054005E-2,1.780229621E0
6.191134375E0,-7.153640773E-1,-1.245901907E0,2.355737936E-1,1.455854504E0
6.201096375E0,8.259242359E-2,-1.165881153E0,7.851699650E-2,1.171437275E0
6.211059375E0,2.519234126E-1,-1.591425721E0,-1.216185772E-1,1.615825581E0
6.221021375E0,2.338110043E-1,-1.709576753E0,2.431628948E-1,1.742540804E0
6.230984375E0,1.547793249E-1,-2.256288931E0,-8.776202917E-2,2.263293740E0
6.240946375E0,8.882391277E-1,-2.280300522E0,-1.852865696E-1,2.454194437E0
6.250909375E0,2.873278502E0,-2.647095337E0,5.117190778E-1,3.940139527E0
6.260871375E0,3.405083643E0,-2.570636853E0,-5.452937901E-2,4.266818709E0
6.270834375E0,3.287868604E0,-1.943030931E0,-2.362918317E-2,3.819163193E0
6.280796375E0,2.532736663E0,-1.429869930E0,9.913077056E-2,2.910173522E0
6.290759375E0,1.463932446E0,-9.061468834E-1,-6.995959640E-2,1.723106127E0
6.300721375E0,1.213702094E0,-4.163108640E-1,1.625648743E-1,1.293373437E0
6.310684375E0,1.798876453E0,-2.698611536E-1,8.248082399E-3,1.819024345E0
6.320647375E0,2.328352648E0,-9.317306081E-2,5.578360677E-2,2.330883756E0
6.330609375E0,2.674513223E0,1.914329800E-1,5.265534639E-2,2.681872509E0
6.340572375E0,1.620720856E0,4.366789819E-1,-1.058123839E-1,1.681850435E0
6.350534375E0,6.106454699E-2,5.992339890E-1,1.223003626E-1,6.146280430E-1
6.360497375E0,1.070421630E-1,6.147484794E-1,-1.302315259E-1,6.374433057E-1
6.370459375E0,1.427811490E-1,8.175886828E-1,1.839937502E-1,8.501125872E-1
6.380422375E0,8.682264657E-2,5.915346678E-1,-1.153907079E-1,6.089059457E-1
6.390384375E0,6.219739478E-2,7.543946072E-1,-7.900173068E-3,7.569954769E-1
6.400347375E0,5.952818194E-2,6.245908052E-1,1.020397604E-2,6.275041032E-1
6.410309375E0,4.898903254E-2,4.629139037E-1,-1.988404155E-2,4.659233656E-1
6.420272375E0,3.455458685E-2,2.487795475E-1,5.996319652E-3,2.512394049E-1
6.430234375E0,3.215388912E-2,-1.019828596E-1,3.205560565E-2,1.116330511E-1
6.440197375E0,1.136075629E-2,-4.433514224E-2,3.578495979E-2,5.809677245E-2
6.450159375E0,-2.118368573E-3,-3.295635095E-2,-3.876119256E-3,3.325105793E-2
6.460122375E0,1.811756115E-2,-5.099709431E-2,4.147196174E-2,6.818264633E-2
6.470084375E0,2.211380415E-2,-4.235947771E-2,-2.259188712E-2,5.285583269E-2
6.480047375E0,2.986645836E-2,-4.015032655E-2,5.045211554E-2,7.105962298E-2
6.490010375E0,7.104887785E-3,-1.832612403E-2,-5.899840593E-4,1.966403655E-2
6.499972375E0,3.546341775E-2,-3.490259668E-2,3.967452765E-2,6.363892989E-2
6.509935375E0,2.097754853E-2,-3.790746253E-2,-1.271593988E-2,4.515227995E-2
6.519897375E0,4.737048214E-2,-1.366214728E-2,1.946771979E-2,5.300574460E-2
6.529860375E0,4.009299642E-2,-1.353707168E-2,1.804450750E-3,4.235512619E-2
6.539822375E0,4.106189376E-2,-2.151643798E-2,4.236717045E-2,6.280138020E-2
6.549785375E0,3.440514938E-2,-1.965830248E-2,2.948692381E-2,4.939273060E-2
6.559747375E0,4.194464517E-2,-2.941635523E-2,4.175379753E-2,6.609126131E-2
6.569710542E0,2.826161237E-2,-3.005518181E-2,1.368248463E-4,4.125592574E-2
6.579672542E0,2.022264558E-2,-2.620769564E-2,2.348534167E-2,4.058768260E-2
6.589635542E0,3.047290599E-2,-2.451351972E-2,3.934591413E-2,5.547622560E-2
6.599597542E0,3.579885607E-2,-5.630722493E-2,1.943439066E-2,6.949645470E-2
6.609560542E0,1.671668249E-2,-5.093462046E-2,-9.028685689E-2,1.050023788E-1
6.619522542E0,1.516961429E-2,-4.731718568E-2,1.038529819E-1,1.151280813E-1
6.629485542E0,3.190436376E-2,-6.275681343E-2,-1.035775781E-2,7.115890110E-2
6.639447542E0,7.111995807E-3,-3.142692033E-2,7.840063691E-2,8.476374033E-2
6.649410542E0,5.354924862E-2,-6.816545136E-2,2.709015012E-3,8.672594508E-2
6.659373542E0,-3.192682529E-2,-2.707681116E-1,1.266916215E-2,2.729380884E-1
6.669335542E0,-1.864292617E-1,-5.231342315E-1,-5.558070838E-2,5.581348483E-1
6.679298542E0,-6.471298919E0,-2.244674461E0,1.404887116E-1,6.850986076E0
6.689260542E0,-4.233448452E0,-1.180965288E0,-7.804220259E-2,4.395776995E0
6.699223542E0,-1.906192303E0,-3.376464446E-1,2.364999926E-1,1.950258050E0
6.709185542E0,-1.105291866E0,-1.468092776E-1,-6.137003660E-2,1.116686775E0
6.719148542E0,-5.203614087E-1,-1.393705778E-1,1.124899042E-1,5.503218442E-1
6.729110542E0,-8.864913949E-1,-6.704942255E-1,-2.311345875E-2,1.111739057E0
6.739073542E0,-1.224869034E0,-1.258250788E0,-4.273612976E-2,1.756509485E0
6.749035542E0,-1.368478404E0,-1.739095836E0,-3.887521327E-2,2.213300421E0
6.758998542E0,-1.524478171E0,-1.811003579E0,2.110008699E-1,2.376612931E0
6.768960542E0,-1.472870061E0,-1.884633034E0,9.124696970E-2,2.393640303E0
6.778923542E0,-1.175015892E0,-1.818376625E0,-6.769789338E-2,2.166042221E0
6.788885542E0,-1.502184492E0,-1.614045382E0,1.533847457E-1,2.210255104E0
6.798848542E0,-5.586812462E-1,-1.501382839E0,-1.198006779E-1,1.606433119E0
6.808810542E0,-5.454901835E-1,-1.210974441E0,1.630911237E-1,1.338139512E0
6.818773542E0,1.110015411E-1,-1.216610500E0,-1.102703011E-1,1.226630339E0
6.828736542E0,4.120202868E-1,-1.271319169E0,1.391163701E-1,1.343639278E0
6.838698542E0,7.514081419E-1,-1.263000335E0,6.352532029E-2,1.470992695E0
6.848661542E0,6.342016543E-1,-1.406876777E0,2.427179217E-3,1.543217385E0
6.858623542E0,9.361139368E-1,-1.557949826E0,-7.479758263E-3,1.817573358E0
6.868586542E0,1.267500498E0,-1.762004204E0,1.712345409E-1,2.177277565E0
6.878548542E0,1.491323289E0,-2.059910486E0,3.241754830E-2,2.543290636E0
6.888511542E0,1.015564880E0,-2.176878773E0,-1.287130040E-1,2.405564435E0
6.898473542E0,6.922683795E-1,-2.151097960E0,1.128530163E-1,2.262563534E0
6.908436542E0,3.179855840E-1,-2.211955635E0,3.165425277E-1,2.257002821E0
6.918398542E0,5.029096993E-1,-2.199844881E0,-6.402408779E-2,2.257506313E0
6.928361542E0,2.001843980E-1,-1.997205238E0,-2.709599733E-3,2.007214462E0
6.938323542E0,2.997084486E-1,-1.871070710E0,2.208534282E-1,1.907749195E0
6.948286542E0,5.980656423E-1,-1.932314739E0,-1.256326908E-1,2.026649041E0
6.958248542E0,1.382396440E-1,-1.837016672E0,9.372326553E-2,1.844593316E0
6.968211542E0,3.747201307E-1,-1.797691077E0,1.057416326E-1,1.839372088E0
6.978173542E0,8.838361012E-1,-1.877014258E0,-2.639491618E-2,2.074860350E0
6.988136542E0,8.555927340E-1,-1.944544921E0,9.936816752E-2,2.126774062E0
6.998099542E0,9.801626202E-1,-2.224396024E0,9.506110847E-2,2.432630891E0
7.008061542E0,1.548141268E0,-2.421454939E0,2.787835479E-2,2.874189036E0
7.018024542E0,1.702410990E0,-2.575405549E0,1.150153166E-1,3.089360038E0
7.027986542E0,1.830574940E0,-2.512074064E0,1.090686983E-1,3.110211681E0
7.037949542E0,1.973814475E0,-2.342810327E0,8.590261459E-2,3.064650562E0
7.047911542E0,2.291014668E0,-2.063121923E0,-1.853216529E-2,3.083109424E0
7.057874542E0,2.145082929E0,-1.768382347E0,1.318079352E-1,2.783151133E0
7.067836542E0,2.165113005E0,-1.446096245E0,-7.964784801E-2,2.604851715E0
7.077799542E0,1.935057521E0,-1.209656333E0,1.093253911E-1,2.284659295E0
7.087761542E0,1.849670193E0,-7.874850239E-1,-9.986985862E-2,2.012805622E0
7.097724542E0,1.344217137E0,9.746979587E-3,4.554630160E-2,1.345023859E0
7.107686542E0,1.394232466E0,3.694266464E-1,4.159533799E-1,1.501125388E0
7.117649542E0,1.718205781E0,1.863635536E-1,-1.883972883E-1,1.738521216E0
7.127611542E0,1.836171749E0,4.737351264E-1,-7.273760855E-2,1.897693975E0
7.137574542E0,1.794880759E0,6.992623803E-1,2.631305516E-1,1.944171418E0
7.147536542E0,2.900732642E0,8.280154377E-1,-4.075082463E-1,3.043997765E0
7.157499542E0,2.880745397E0,1.071866038E0,7.611086726E-2,3.074635541E0
7.167462542E0,2.518762987E0,1.304161956E0,1.602148783E-1,2.840893204E0
7.177424542E0,1.837009217E0,1.388438898E0,-7.944845796E-2,2.304056747E0
7.187387542E0,6.998793346E-1,1.233268559E0,1.001704055E-1,1.421554266E0
7.197349542E0,-4.905823069E-3,7.669287718E-1,-1.501208299E-1,7.814986063E-1
7.207312542E0,1.039471221E-1,8.093614311E-1,-2.439049065E-2,8.163735826E-1
7.217274542E0,7.344124330E-2,7.418551802E-1,5.913113773E-2,7.478229844E-1
7.227237542E0,7.499569360E-2,5.124545114E-1,-8.680191636E-3,5.179858357E-1
7.237199542E0,9.068383715E-2,5.872522036E-1,2.335144043E-2,5.946713368E-1
7.247162542E0,3.880313720E-2,1.322905681E-1,-2.993657470E-2,1.410768456E-1
7.257124542E0,9.411220587E-2,-1.318510585E-2,1.311279041E-1,1.619428341E-1
7.267087542E0,1.583266571E-2,9.377682237E-2,-9.490206420E-2,1.343546334E-1
7.277049542E0,8.205616996E-2,3.337150326E-2,6.766105592E-2,1.114669940E-1
7.287012542E0,3.006012911E-2,6.272571355E-2,-3.292976439E-2,7.695775390E-2
7.296974542E0,5.198185679E-2,4.826207746E-2,6.002810061E-2,9.292316406E-2
7.306937542E0,5.050503741E-2,4.731208764E-2,3.727658451E-2,7.860493746E-2
7.316900542E0,7.208781387E-2,4.487445652E-2,4.549133778E-4,8.491511469E-2
7.326862542E0,6.006051154E-2,3.968276856E-2,8.538689017E-3,7.249066407E-2
7.336825542E0,6.205647231E-2,4.449402206E-2,2.021557868E-2,7.898983084E-2
7.346787542E0,6.836529366E-2,3.644770514E-2,8.263577521E-2,1.132736507E-1
7.356750542E0,5.412308432E-2,4.990638759E-2,3.967862070E-2,8.363222297E-2
7.366712542E0,5.596410757E-2,3.677756120E-2,2.905539930E-2,7.299853815E-2
7.376675542E0,5.121341845E-2,2.259194193E-2,-1.195404768E-2,5.723730711E-2
7.386637542E0,4.284823185E-2,3.371634280E-2,1.544425070E-2,5.666822411E-2
7.396600542E0,3.834222129E-2,3.123865826E-2,1.994075954E-2,5.332554354E-2
7.406562542E0,3.385384830E-2,2.977985105E-2,1.725162506E-2,4.827567856E-2
7.416525542E0,3.392320176E-2,3.969607098E-2,1.986883879E-3,5.225427616E-2
7.426487542E0,5.709576764E-2,5.013826624E-2,9.625686407E-3,7.659259927E-2
7.436450542E0,4.478343639E-2,4.813740386E-2,4.691221118E-3,6.591489498E-2
7.446412542E0,4.350859720E-2,4.521909507E-2,1.891691208E-2,6.554093493E-2
7.456375542E0,4.951200203E-2,4.202251364E-2,-2.464075148E-2,6.945859652E-2
7.466337542E0,5.052035894E-2,5.535705239E-2,5.604556203E-2,9.358319795E-2
7.476300542E0,3.809466479E-2,4.291357448E-2,1.294105768E-2,5.882388405E-2
7.486262542E0,1.168049392E-1,5.678914513E-2,1.581397015E-1,2.046376456E-1
7.496225542E0,1.042305732E0,8.816778939E-1,-5.777265412E-1,1.482405175E0
7.506188542E0,1.710725146E0,1.826815181E0,5.955202031E-1,2.572640383E0
7.516150542E0,-1.688952308E0,-7.502132999E-2,4.223122269E-1,1.742565842E0
7.526113542E0,-1.676058028E0,-4.465419922E-1,-9.446714830E-1,1.975088472E0
7.536075542E0,-2.775107260E0,-4.172989704E-1,7.662542224E-1,2.909038375E0
7.546038542E0,-3.105886296E0,-1.524990680E0,-7.827667594E-3,3.460084902E0
7.556000542E0,-2.918836498E0,-1.893675753E0,-6.748715973E-1,3.544159426E0
7.565963542E0,-3.652825492E0,-1.448585113E0,8.406886929E-1,4.018493547E0
7.575926042E0,-3.047879285E0,-1.513487745E0,1.083658630E-1,3.404696235E0
7.585889042E0,-2.680861253E0,-1.574824452E0,-6.071906608E-1,3.167928284E0
7.595851042E0,-2.739335164E0,-1.271446638E0,2.995774162E-1,3.034844365E0
7.605814042E0,-2.052349159E0,-1.267059472E0,1.896579480E-1,2.419410448E0
7.615776042E0,-9.299198350E-1,-1.197876386E0,1.719671971E-1,1.526181985E0
7.625739042E0,4.439018282E-1,-1.220751936E0,2.601601660E-2,1.299215516E0
7.635701042E0,1.844592617E0,-1.474371772E0,-9.465297282E-2,2.363314035E0
7.645664042E0,2.947488147E0,-1.531957345E0,-5.994039237E-2,3.322374533E0
7.655626042E0,3.261930355E0,-1.358257033E0,1.996403146E-1,3.539054685E0
7.665589042E0,3.032107883E0,-1.505758456E0,5.264482141E-2,3.385817216E0
7.675552042E0,2.152608150E0,-1.966321706E0,-1.134798378E-1,2.917708103E0
7.685514042E0,7.510184980E-1,-1.827042345E0,2.381606019E-1,1.989681630E0
7.695477042E0,2.908029930E-1,-1.906762406E0,-1.408097237E-1,1.933943286E0
7.705439042E0,-4.470500422E-1,-1.368426949E0,3.696767610E-1,1.486306483E0
7.715402042E0,-9.688574673E-1,-1.246707946E0,-2.799711174E-1,1.603542740E0
7.725364042E0,-1.491668567E0,-9.674440491E-1,1.806918275E-1,1.787084956E0
7.735327042E0,-1.186448588E0,-1.141823954E0,8.464137018E-2,1.648813620E0
7.745289042E0,-3.070875069E-1,-1.461605400E0,-1.385029972E-1,1.499925386E0
7.755252042E0,1.205489972E0,-1.523327001E0,2.497591388E-1,1.958599207E0
7.765214042E0,2.873003391E0,-1.434520513E0,7.062150121E-2,3.212006379E0
7.775177042E0,3.713506142E0,-1.533076794E0,-1.791347140E-1,4.021509862E0
7.785139042E0,3.629313253E0,-1.389023620E0,3.152479541E-1,3.898805276E0
7.795102042E0,3.183526210E0,-1.536304165E0,-8.572193563E-2,3.535875827E0
7.805064042E0,1.487929857E0,-1.220033021E0,-2.772164941E-2,1.924365953E0
7.815027042E0,4.931070615E-1,-8.281062888E-1,1.551272160E-1,9.762064602E-1
7.824990042E0,1.967614197E-1,-9.204482958E-1,-9.523184717E-2,9.460492727E-1
7.834952042E0,-6.864750313E-1,-9.768267106E-1,1.292392534E-1,1.200891825E0
7.844915042E0,-1.371493083E0,-6.973515102E-1,-3.536220610E-2,1.539007112E0
7.854877042E0,-1.109122961E0,-9.587787679E-1,7.550275683E-2,1.468029678E0
7.864840042E0,-1.401172672E0,-1.156353261E0,1.191416967E-1,1.820613211E0
7.874802042E0,-1.765858104E0,-1.278609916E0,-4.660698652E-2,2.180658243E0
7.884765042E0,-1.055275514E0,-1.173579889E0,2.231174701E-1,1.593950304E0
7.894727042E0,2.475782187E-1,-1.239783088E0,-8.545062482E-2,1.267145962E0
7.904690042E0,5.046233720E-1,-1.035536703E0,6.104259253E-2,1.153562832E0
7.914652042E0,1.121405842E0,-6.260394529E-1,-1.750656366E-3,1.284320647E0
7.924615042E0,1.804254722E0,-7.891180050E-1,1.176974344E-1,1.972788639E0
7.934577042E0,1.817581843E0,-4.692050692E-1,1.446753180E-1,1.882734208E0
7.944540042E0,1.704898396E0,-3.950331386E-1,-2.306568700E-1,1.765200360E0
7.954502042E0,1.898049909E0,2.393848261E-2,3.466504258E-1,1.929594005E0
7.964465042E0,2.244979685E0,1.034087945E-1,-1.839475572E-1,2.254875577E0
7.974427042E0,2.882435827E0,1.408967011E-1,1.152088594E-1,2.888176112E0
7.984390042E0,3.455302162E0,-6.708015332E-2,2.360637903E-2,3.456033860E0
7.994352042E0,3.233704968E0,-5.790077392E-2,-1.705334598E-1,3.238716101E0
8.004315042E0,2.801414760E0,2.555579688E-1,1.376013565E-1,2.816410600E0
8.014278042E0,1.082053350E0,7.533345070E-1,1.241948605E-3,1.318466486E0
8.024240042E0,-3.292497241E-2,1.041672551E0,-9.738362253E-2,1.046732692E0
8.034203042E0,3.812139296E-2,1.015345244E0,5.858617723E-2,1.017748272E0
8.044165042E0,-1.013274507E-2,7.813678861E-1,-7.614770472E-2,7.851349686E-1
8.054128042E0,4.983270354E-2,6.200065150E-1,8.730009913E-2,6.281024473E-1
8.064090042E0,1.263286374E-3,-4.680200944E-2,-2.526114106E-2,5.319914687E-2
8.074053042E0,2.825562354E-2,-4.516590368E-2,9.433488429E-2,1.083393258E-1
8.084015042E0,1.251302322E-2,-1.158815816E-2,3.297829628E-4,1.705784032E-2
8.093978042E0,5.612209203E-2,-4.228912840E-2,6.514032125E-2,9.581921022E-2
8.103940042E0,3.007077743E-2,-3.790939942E-2,-7.197922468E-4,4.839310199E-2
8.113903042E0,5.439928303E-2,-3.185195809E-2,4.164270043E-2,7.555093466E-2
8.123865042E0,5.454518477E-2,-1.889986379E-2,-6.555313468E-3,5.809779830E-2
8.133828042E0,6.323580089E-2,-3.907611994E-2,5.867096186E-3,7.456629588E-2
8.143790042E0,4.343082923E-2,-4.547385095E-2,2.127801776E-3,6.291768899E-2
8.153753042E0,3.792968652E-2,-4.210057396E-2,1.963845849E-2,5.997323152E-2
8.163716042E0,3.238843556E-2,-3.376249926E-2,4.970133305E-3,4.704911625E-2
8.173678042E0,2.763775557E-2,-3.925551983E-2,1.200374901E-2,4.948667861E-2
8.183641042E0,2.871352448E-2,-3.232233005E-2,1.005662620E-2,4.438845839E-2
8.193603042E0,4.466492064E-2,-1.976459390E-2,3.879218280E-2,6.237329360E-2
8.203566042E0,3.980328059E-2,-1.834342813E-2,3.010731339E-2,5.317172953E-2
8.213528042E0,3.988125413E-2,-3.068278905E-2,2.021967173E-2,5.422898763E-2
8.223491042E0,2.860173302E-2,-1.650177447E-2,7.937595248E-3,3.396134731E-2
8.233453042E0,2.960289055E-2,-2.599911449E-2,1.661252439E-2,4.275816939E-2
8.243416042E0,2.008606742E-2,-2.638729652E-2,2.843559444E-2,4.368435135E-2
8.253378042E0,1.868107743E-2,-3.075511180E-2,2.858119011E-2,4.595371567E-2
8.263341042E0,3.842445689E-2,-4.727269202E-2,1.645289540E-2,6.310185469E-2
8.273303042E0,2.653585691E-2,-3.474521521E-2,2.019043565E-2,4.815636380E-2
8.283266042E0,3.095630170E-2,-4.011398245E-2,2.168206036E-2,5.511384530E-2
8.293228042E0,3.774905780E-2,-3.194195040E-2,2.017757177E-2,5.340799531E-2
8.303191042E0,4.197338332E-2,-3.737235093E-2,1.164122164E-2,5.739316652E-2
8.313153042E0,4.658936722E-2,-2.510938754E-2,1.043961883E-2,5.394475064E-2
8.323116042E0,5.833192842E-2,-2.826081751E-2,1.003382206E-3,6.482510667E-2
8.333079042E0,6.469240170E-2,7.591641080E-3,-9.820807993E-2,1.178455210E-1
8.343041042E0,7.975318925E-2,-3.621719694E-2,2.348510778E-1,2.506537159E-1
8.353004042E0,-1.552315522E-1,-5.543602634E-2,-1.729156154E-1,2.388928586E-1
8.362966042E0,-3.424479150E0,-1.484001552E0,1.798276091E-1,3.736529944E0
8.372929042E0,-4.725154849E0,-2.693605260E0,-2.916649640E-2,5.439066862E0
8.382891042E0,-2.647363724E0,-1.419657475E0,1.077752942E-1,3.005923743E0
8.392854042E0,-1.879830131E0,-1.265455873E0,2.640029562E-1,2.281411285E0
8.402816042E0,-1.166081859E0,-1.262475986E0,-5.040305740E-1,1.790988368E0
8.412779042E0,-7.555977632E-2,-7.138689443E-1,5.279415929E-1,8.910894876E-1
8.422741042E0,6.610571849E-1,4.562267720E-1,-3.594219142E-1,8.799565794E-1
8.432704042E0,-1.079942176E-1,7.340271471E-1,2.726235062E-1,7.904316415E-1
8.442666042E0,-6.204221059E-1,1.340142907E-1,-1.234586960E-1,6.466262206E-1
8.452629042E0,-8.438846348E-1,-3.264223852E-1,4.230928302E-2,9.058051258E-1
8.462591042E0,-6.002626605E-1,-5.841994089E-1,9.788999140E-2,8.433188373E-1
8.472554042E0,-5.854989160E-1,-8.673997242E-1,4.165907264E-2,1.047342704E0
8.482516042E0,-5.583657523E-1,-1.194705514E0,6.563674986E-2,1.320379401E0
8.492479042E0,-3.143938586E-1,-1.424408630E0,-2.910159230E-2,1.458982641E0
8.502442042E0,-1.139588252E-1,-1.739886234E0,6.971869111E-2,1.745007569E0
8.512404042E0,3.553334679E-1,-1.903350702E0,2.225801110E-2,1.936362876E0
8.522367042E0,1.089512862E0,-1.955453925E0,7.704876065E-2,2.239815805E0
8.532329042E0,1.294742384E0,-1.907973365E0,1.027180374E-2,2.305824302E0
8.542292042E0,1.260221446E0,-2.206618150E0,1.598564440E-1,2.546149217E0
8.552254042E0,8.999771938E-1,-2.243256511E0,6.896381557E-2,2.418039439E0
8.562217042E0,2.862241298E-1,-2.385593089E0,-7.576705098E-2,2.403896687E0
8.572178875E0,2.259496239E-1,-2.422580821E0,2.881279832E-1,2.450095672E0
8.582141875E0,7.103757446E-1,-2.768878806E0,-8.313454270E-2,2.859761335E0
8.592103875E0,8.963263386E-1,-2.742422201E0,1.301683760E-1,2.888117768E0
8.602066875E0,9.215778317E-1,-2.680741970E0,1.443461198E-1,2.838400784E0
8.612028875E0,8.978841830E-1,-2.705602284E0,-6.718918562E-2,2.851489806E0
8.621991875E0,6.689644477E-1,-2.362710595E0,2.475863135E-1,2.468038446E0
8.631953875E0,5.903408126E-1,-2.080627317E0,-6.667170703E-2,2.163783128E0
8.641916875E0,4.303517099E-1,-1.881004690E0,5.032581568E-2,1.930262658E0
8.651878875E0,7.419580912E-1,-1.785640842E0,1.467861629E-1,1.939216647E0
8.661841875E0,1.160362697E0,-1.576489593E0,-1.432521057E-1,1.962723157E0
8.671804875E0,9.032933691E-1,-1.330674109E0,2.582785320E-1,1.628907700E0
8.681766875E0,9.590920325E-1,-9.452209751E-1,-1.474954301E-1,1.354642064E0
8.691729875E0,1.140950672E0,-5.704072890E-1,1.001803458E-2,1.275630539E0
8.701691875E0,2.077638951E0,-1.911683935E-1,2.850336367E-1,2.105795133E0
8.711654875E0,2.766112488E0,-3.130309092E-1,-1.689377546E-1,2.788889853E0
8.721616875E0,2.778556825E0,-4.028219953E-1,1.732722956E-1,2.812946298E0
8.731579875E0,3.076705181E0,-5.443738769E-1,-6.201323032E-2,3.125108531E0
8.741541875E0,2.958642588E0,-8.983583191E-1,1.005838037E-1,3.093659764E0
8.751504875E0,2.673328870E0,-1.187954977E0,2.997633576E-2,2.925546591E0
8.761466875E0,2.148074219E0,-9.297571363E-1,-9.959796309E-2,2.342774197E0
8.771429875E0,1.596315893E0,-5.032557448E-1,1.904151624E-1,1.684561875E0
8.781391875E0,1.413412210E0,-9.029326690E-1,-1.005077899E-1,1.680215253E0
8.791354875E0,7.978953335E-1,-8.965374231E-1,-6.750727415E-2,1.202070525E0
8.801316875E0,-1.328956818E-1,-1.477293918E-1,1.445256293E-1,2.457089599E-1
8.811279875E0,-6.958008286E-1,1.751531439E-1,7.815096080E-2,7.217513350E-1
8.821242875E0,-5.862424991E-1,1.782833229E-1,1.865203321E-2,6.130359772E-1
8.831204875E0,-2.447826649E-1,5.859813479E-1,1.383492154E-1,6.499486122E-1
8.841167875E0,6.593575455E-1,8.034631254E-1,-7.191490531E-3,1.039402273E0
8.851129875E0,1.584328078E0,8.176978064E-1,-2.958369523E-1,1.807275481E0
8.861092875E0,9.484327045E-1,7.757279543E-1,2.204107940E-1,1.244933481E0
8.871054875E0,1.538369986E0,7.498825302E-1,1.160491043E-1,1.715334783E0
8.881017875E0,2.649415804E0,8.075803692E-1,-2.465203661E-1,2.780712579E0
8.890979875E0,2.775690227E0,9.111839674E-1,1.184067017E-1,2.923821576E0
8.900942875E0,2.332255226E0,8.789370116E-1,-7.096180916E-2,2.493387312E0
8.910904875E0,1.485776182E0,9.894818395E-1,1.056726354E-1,1.788231495E0
8.920867875E0,6.520278414E-1,9.225350940E-1,-7.636463642E-4,1.129695485E0
8.930829875E0,-1.077413072E-1,6.977124296E-1,-1.305466908E-1,7.179507380E-1
8.940792875E0,1.446674517E-1,6.662962901E-1,1.568579918E-1,6.996312224E-1
8.950754875E0,-4.110035291E-3,2.973809096E-1,-1.540501589E-1,3.349384260E-1
8.960717875E0,3.789009904E-2,-4.302174797E-2,4.488907456E-2,7.281180824E-2
8.970680875E0,4.622552879E-2,3.048873458E-2,7.751946151E-2,9.526609765E-2
8.980642875E0,-2.404746923E-2,4.905033695E-2,-9.477108657E-2,1.093881857E-1
8.990605875E0,9.402010309E-2,2.191158185E-2,1.604475975E-1,1.872520460E-1
9.000567875E0,9.046172518E-3,6.404862782E-2,-9.402264297E-2,1.141241313E-1
9.010530875E0,1.018963665E-1,4.076055659E-2,6.659393907E-2,1.283707334E-1
9.020492875E0,6.197218561E-2,4.065408245E-2,5.368913412E-3,7.431104521E-2
9.030455875E0,4.741892723E-2,5.495936863E-2,-2.995528579E-2,7.852646692E-2
9.040417875E0,6.923353210E-2,3.921835346E-2,1.159929711E-1,1.406617594E-1
9.050380875E0,3.808536407E-2,5.451591214E-2,5.387156725E-2,8.558402532E-2
9.060342875E0,7.917658070E-2,4.143576382E-2,-2.800757825E-2,9.364976185E-2
9.070305875E0,4.444215543E-2,4.189882675E-2,-6.093675792E-2,8.627806980E-2
9.080267875E0,5.118410928E-2,2.228136342E-2,5.567777216E-2,7.884343036E-2
9.090230875E0,4.224341505E-2,2.673683211E-2,5.598416626E-2,7.505725267E-2
9.100192875E0,3.952990956E-2,2.044296227E-2,1.766970098E-2,4.788263557E-2
9.110155875E0,4.806905996E-2,1.058059154E-2,1.947239757E-2,5.293163241E-2
9.120117875E0,4.584270062E-2,2.674355641E-2,-1.303929090E-4,5.307342095E-2
9.130080875E0,4.906677310E-2,2.558312165E-2,4.283553243E-2,6.997804780E-2
9.140043875E0,3.285346736E-2,4.851800278E-2,3.086452782E-2,6.622662598E-2
9.150005875E0,4.311496081E-2,3.842667701E-2,1.799480617E-2,6.049233341E-2
9.159968875E0,4.695608814E-2,2.608611010E-2,-3.557446003E-3,5.383321257E-2
9.169930875E0,4.711869555E-2,5.856233155E-2,4.080187082E-3,7.527526867E-2
9.179893875E0,4.880850890E-2,4.881822076E-2,1.112023473E-2,6.992244875E-2
9.189855875E0,5.702752881E-2,4.186774515E-2,-6.237458825E-2,9.431668137E-2
9.199818875E0,7.383159976E-2,5.862507949E-2,9.046051919E-2,1.306564602E-1
9.209780875E0,3.449643446E-2,4.213125357E-2,-2.674224079E-2,6.066460220E-2
9.219743875E0,3.000551246E-2,3.647487642E-2,7.714816332E-2,9.045765026E-2
9.229705875E0,-2.229638711E-1,-1.837953652E-1,-2.479044020E-2,2.900141203E-1
9.239668875E0,-8.981024303E-1,-1.796853025E-1,-3.889749116E-1,9.950760097E-1
9.249630875E0,-1.283743625E0,1.294129157E0,3.395185769E-1,1.854195468E0
9.259593875E0,-2.428586642E0,3.264944522E-2,7.544387537E-1,2.543280735E0
9.269555875E0,-3.274599517E0,-1.592844109E0,-8.010059792E-1,3.728507065E0
9.279518875E0,-3.167472679E0,-1.791799276E0,-3.946683455E-1,3.660490530E0
9.289480875E0,-2.818305904E0,-1.669822995E0,3.912909937E-1,3.299131044E0
9.299443875E0,-2.720607702E0,-1.854625708E0,3.445354879E-2,3.292799695E0
9.309406875E0,-2.164181836E0,-1.694803470E0,3.810881871E-1,2.775116219E0
9.319368875E0,-1.196396748E0,-1.466750950E0,4.256094718E-1,1.940068800E0
9.329331875E0,-4.569652023E-1,-1.335540892E0,3.418884534E-1,1.452368543E0
9.339293875E0,2.837731963E-1,-1.449092651E0,-2.311772722E-1,1.494603516E0
9.349256875E0,1.289011382E0,-1.772864238E0,-9.922584629E-1,2.406070407E0
9.359218875E0,1.432718547E0,-1.662516607E0,4.822877026E-1,2.247052588E0
9.369181875E0,1.819039115E0,-1.717000524E0,6.251176393E-1,2.578326233E0
9.379143875E0,2.111381333E0,-2.056378037E0,2.545170182E-1,2.958276639E0
9.389106875E0,3.007567703E0,-2.497277977E0,-8.986346000E-1,4.011160048E0
9.399068875E0,2.184518306E0,-2.163336913E0,1.623789328E-1,3.078719498E0
9.409031875E0,1.734747701E0,-1.840264800E0,9.163779759E-1,2.689920578E0
9.418993875E0,1.575113597E0,-1.819822203E0,-3.240339804E-1,2.428525008E0
9.428956875E0,4.300227309E-1,-1.983119587E0,-6.300702310E-1,2.124775598E0
9.438918875E0,-3.993567891E-1,-8.548317920E-1,1.266560705E0,1.579366726E0
9.448881875E0,-6.691973861E-1,-1.295936239E0,-1.034820930E0,1.788331690E0
9.458844875E0,-4.073384212E-1,-6.213863848E-1,4.330021065E-1,8.599630532E-1
9.468806875E0,6.272432484E-1,-7.437228540E-1,3.567169923E-1,1.036245525E0
9.478769875E0,2.188717338E0,-9.412659185E-1,-4.439124262E-1,2.423535301E0
9.488731875E0,3.024634264E0,-5.122107190E-1,3.360377294E-1,3.086048219E0
9.498694875E0,3.378577922E0,-7.621188522E-1,-6.131858110E-2,3.464011243E0
9.508656875E0,3.363951989E0,-7.759766802E-1,1.299368262E-1,3.454735355E0
9.518619875E0,2.737599418E0,-8.474285591E-1,-9.695209801E-2,2.867400468E0
9.528581875E0,1.731634497E0,-5.816272187E-1,-3.473129153E-2,1.827034350E0
9.538544875E0,6.213360257E-1,-2.137089164E-1,1.447893387E-1,6.728253194E-1
9.548506875E0,-3.836705003E-1,-9.588644296E-2,-2.293353993E-1,4.571564153E-1
9.558469875E0,-7.787172702E-1,5.599154837E-2,3.455382854E-1,8.537753493E-1
9.568431875E0,-1.387734674E-1,-6.430511959E-1,-3.400085735E-1,7.405259927E-1
9.578394375E0,-1.368372277E0,-3.203837829E-1,1.954765123E-1,1.418907863E0
9.588356375E0,-1.772569099E0,-7.722568278E-1,1.237270832E-3,1.933489941E0
9.598319375E0,-1.911307739E0,-8.041623062E-1,1.078741121E-1,2.076393776E0
9.608281375E0,-1.862275182E0,-6.819266284E-1,7.514256835E-2,1.984625704E0
9.618244375E0,-8.927053772E-1,-7.511391699E-1,1.623549592E-1,1.177918535E0
9.628207375E0,-5.743158968E-2,-8.899785282E-1,-1.197989237E-1,8.998399581E-1
9.638169375E0,1.438960742E0,-9.852737445E-1,2.103307790E-1,1.756590847E0
9.648132375E0,3.482424472E0,-7.517809749E-1,-1.578221977E-1,3.566141147E0
9.658094375E0,3.738020594E0,-3.901800227E-1,7.075130939E-3,3.758335864E0
9.668057375E0,2.721988229E0,-6.872558539E-1,4.871315360E-3,2.807412378E0
9.678019375E0,2.697854724E0,-5.436463736E-1,3.413353068E-1,2.773171701E0
9.687982375E0,2.418148339E0,-4.923081491E-1,-4.890763199E-1,2.515751250E0
9.697944375E0,2.067787270E0,1.286326961E-1,6.073900509E-1,2.158984307E0
9.707907375E0,1.999315498E0,3.340432076E-2,-3.630635601E-1,2.032287740E0
9.717869375E0,1.579236176E0,5.430380074E-1,5.543745160E-2,1.670913070E0
9.727832375E0,1.033028393E0,7.320556122E-1,1.392070019E-1,1.273747098E0
9.737794375E0,1.129305101E-1,6.686714291E-1,-3.279194552E-1,7.532635324E-1
9.747757375E0,2.490914964E-1,1.002951559E0,4.316028678E-1,1.119928318E0
9.757719375E0,3.238355679E-2,6.084421477E-1,-3.521748751E-1,7.037596781E-1
9.767682375E0,7.408219863E-2,1.015928869E0,2.262369597E-1,1.043447555E0
9.777644375E0,-1.472370015E-2,5.998157139E-1,-1.321400571E-1,6.143750261E-1
9.787607375E0,5.072847870E-2,5.030311386E-1,9.134754181E-2,5.137685066E-1
9.797570375E0,1.740830303E-2,2.798053488E-2,1.170320213E-2,3.497033438E-2
9.807532375E0,3.328651763E-2,-5.098879857E-2,4.599127471E-2,7.630889323E-2
9.817495375E0,2.872611883E-2,2.184300497E-3,-4.017621875E-3,2.908783865E-2
9.827457375E0,3.671888347E-2,-3.502953608E-2,1.634413719E-2,5.331487243E-2
9.837420375E0,6.608988167E-2,-3.250467181E-2,4.058727801E-2,8.409371727E-2
9.847382375E0,4.561901264E-2,-3.399187457E-2,-2.976174295E-2,6.420516486E-2
9.857345375E0,6.997723397E-2,-4.958932232E-2,1.095300436E-2,8.646318562E-2
9.867307375E0,4.774449837E-2,-4.168158442E-2,-1.015193582E-2,6.418686318E-2
9.877270375E0,6.193715257E-2,-3.583844354E-2,2.996522605E-2,7.757911882E-2
9.887232375E0,4.259496975E-2,-4.586568749E-2,1.823161840E-3,6.262041724E-2
9.897195375E0,3.780162793E-2,-4.812375426E-2,3.176207542E-2,6.894699583E-2
9.907157375E0,3.346305330E-2,-4.221934553E-2,6.912578344E-3,5.431420452E-2
9.917120375E0,2.762081692E-2,-1.996307032E-2,5.136720479E-2,6.164433008E-2
9.927083375E0,2.248839597E-2,-1.911895165E-2,3.055287123E-2,4.248223400E-2
9.937045375E0,3.216688090E-2,-3.741505388E-3,4.072293341E-2,5.202945700E-2
9.947008375E0,3.467566076E-2,5.097657423E-3,1.915840209E-2,3.994285832E-2
9.956970375E0,4.115142012E-2,8.917150050E-3,1.675578117E-2,4.531788990E-2
9.966933375E0,4.081524633E-2,8.849395439E-4,2.991786361E-2,5.061369393E-2
9.976895375E0,2.897465291E-2,-9.492223710E-3,2.661769509E-2,4.047387446E-2
9.986858375E0,3.341538935E-2,-1.826211529E-2,1.987527072E-2,4.295485405E-2
9.996820375E0,3.530520945E-2,-2.331118600E-2,3.184452116E-2,5.295226847E-2
1.000678337E1,3.528248297E-2,-4.246269934E-2,1.607984304E-3,5.523151323E-2
1.001674538E1,3.612621792E-2,-4.416612117E-2,3.648487151E-2,6.772662496E-2
1.002670837E1,3.649590813E-2,-2.493676677E-2,-1.111380279E-2,4.557751923E-2
1.003667037E1,6.822516605E-2,-3.423488120E-2,8.318833709E-2,1.129026120E-1
1.004663337E1,3.740045412E-2,-2.658462178E-2,-9.473834217E-2,1.052658043E-1
1.005659537E1,1.038196437E-1,-1.957094325E-1,1.718724722E-1,2.803940924E-1
1.006655837E1,-3.557437963E-1,-9.916895288E-1,-3.152462000E-1,1.099719026E0
1.007652037E1,-2.026367202E0,-1.916828973E0,4.636999887E-1,2.827616493E0
1.008648337E1,-2.946654627E0,-2.458084676E0,-1.460751414E-2,3.837338549E0
1.009644638E1,-2.836950336E0,-1.638029784E0,-1.187920332E-1,3.278039098E0
1.010640837E1,-2.987988887E0,-8.013337156E-1,1.287603664E-1,3.096254599E0
1.011637137E1,-2.750466801E0,6.191684263E-2,-5.448961794E-2,2.751703188E0
1.012633337E1,-2.686232213E0,5.298909815E-1,2.346838474E-2,2.738097646E0
1.013629637E1,-2.260034804E0,8.420906360E-1,4.881138682E-2,2.412313517E0
1.014625837E1,-1.760630985E0,5.934410063E-1,1.780003542E-1,1.866461310E0
1.015622137E1,-1.266588625E0,2.055155055E-1,1.568170613E-1,1.292700646E0
1.016618337E1,-1.023604801E-1,2.340161685E-2,-4.109961104E-1,4.241970136E-1
1.017614638E1,9.444929968E-1,3.026127789E-2,2.125749403E-1,9.685922110E-1
1.018610837E1,1.837204075E0,1.773943268E-1,1.646798122E-1,1.853080409E0
1.019607137E1,2.056616749E0,-9.329159483E-3,-3.483005100E-1,2.085922513E0
1.020603337E1,8.207974155E-1,-3.823166871E-1,2.876134282E-1,9.500504884E-1
1.021599637E1,-3.725037802E-1,-1.250292435E0,-6.986311734E-2,1.306472768E0
1.022595837E1,-1.675343790E0,-1.919269893E0,-1.597283900E-2,2.547671264E0
1.023592137E1,-2.558114748E0,-2.470071468E0,1.714959115E-1,3.560142549E0
1.024588437E1,-3.733908832E0,-2.751169928E0,1.561294287E-1,4.640623615E0
1.025584637E1,-4.567313356E0,-3.209777577E0,-7.781474590E-3,5.582390522E0
1.026580937E1,-2.050529944E0,-4.565036450E0,3.103175819E-2,5.004517340E0
1.027577137E1,1.099508604E0,-4.487105052E0,-5.160927951E-2,4.620140088E0
1.028573438E1,1.625186630E-1,-4.216432762E0,4.963280368E-1,4.248653795E0
1.029569637E1,6.681939308E-1,-4.199074425E0,1.417183810E-1,4.254267652E0
1.030565937E1,1.548391310E-1,-3.935988897E0,-1.485993844E-1,3.941835300E0
1.031562137E1,-7.593466873E-1,-3.664743872E0,-3.595394433E-2,3.742759373E0
1.032558437E1,-1.388338582E-1,-3.733160973E0,9.334144235E-2,3.736907587E0
1.033554637E1,9.231182076E-1,-3.864562819E0,3.852174908E-1,3.991915019E0
1.034550937E1,1.112668055E0,-3.944204235E0,5.493201828E-1,4.134795027E0
1.035547137E1,1.334055700E0,-3.946603932E0,-5.887093663E-2,4.166395684E0
1.036543438E1,9.518135646E-1,-3.910266703E0,-1.051127061E0,4.159447421E0
1.037539637E1,1.127595120E0,-3.352344389E0,8.736330754E-1,3.643201670E0
1.038535937E1,1.890052672E0,-3.352734106E0,5.718027270E-1,3.891026015E0
1.039532137E1,2.783198929E0,-3.247866924E0,-4.516178870E-1,4.301022501E0
1.040528437E1,2.775576499E0,-2.788602341E0,-1.493472433E-1,3.937312855E0
1.041524737E1,2.375928080E0,-2.237205227E0,7.531751704E-1,3.349237870E0
1.042520937E1,2.832326358E0,-2.018788919E0,-5.349974281E-1,3.519062879E0
1.043517237E1,2.830818946E0,-1.358387718E0,4.730491018E-1,3.175299757E0
1.044513438E1,3.497918424E0,-1.359142301E0,-2.934559661E-1,3.764148974E0
1.045509737E1,2.923929423E0,-9.477210984E-1,1.171957433E-1,3.075918301E0
1.046505937E1,2.323379299E0,-4.062309220E-1,2.903265363E-1,2.376426819E0
1.047502238E1,2.787806535E0,-1.942669792E-1,-9.868345857E-3,2.794584463E0
1.048498437E1,2.855864909E0,-2.764420121E-1,-3.172424394E-1,2.886698344E0
1.049494737E1,2.398095751E0,-3.686377108E-3,5.432677299E-1,2.458864911E0
1.050490937E1,3.466044374E0,-6.734475810E-2,-2.688520521E-1,3.477108044E0
1.051487237E1,3.830774391E0,4.083772156E-1,-4.585795820E-2,3.852753215E0
1.052483438E1,3.216638115E0,7.289891861E-1,1.401618522E-1,3.301186354E0
1.053479737E1,2.625836323E0,9.667281307E-1,-1.766017002E-1,2.803706089E0
1.054475937E1,1.505118771E0,1.330934164E0,2.410070264E-1,2.023574226E0
1.055472238E1,3.236338481E-1,8.219800879E-1,-3.696101028E-1,9.576020889E-1
1.056468537E1,7.377734399E-2,1.017339875E0,7.360065758E-2,1.022663471E0
1.057464692E1,3.291205098E-1,1.050411288E0,2.252218831E-1,1.123569794E0
1.058460992E1,3.763987932E-2,7.188726260E-1,-2.061962128E-1,7.488067114E-1
1.059457192E1,1.894050194E-1,9.164916312E-1,1.168209368E-1,9.431215737E-1
1.060453492E1,1.221118721E-1,6.913209844E-1,-3.392262161E-2,7.028419146E-1
1.061449692E1,1.118238058E-1,7.959746694E-1,3.163577557E-2,8.044134883E-1
1.062445992E1,1.107663917E-1,7.312769824E-1,6.486901045E-3,7.396467389E-1
1.063442192E1,6.455856441E-2,5.597376553E-1,-5.040884614E-3,5.634709056E-1
1.064438492E1,1.296750263E-2,1.341992454E-1,-4.560652792E-2,1.423290167E-1
1.065434692E1,4.994238908E-2,-1.272820076E-2,9.195974529E-2,1.054174752E-1
1.066430992E1,-1.491741657E-2,5.448557971E-2,-3.437578082E-2,6.612792164E-2
1.067427192E1,4.515205766E-2,6.212831084E-3,1.083079755E-2,4.684670486E-2
1.068423492E1,7.291254080E-3,2.644304607E-2,-5.862535357E-2,6.472502726E-2
1.069419692E1,3.576205972E-2,4.561687019E-3,4.989896894E-2,6.156006014E-2
1.070415992E1,3.511840919E-2,5.880362056E-3,1.277441204E-2,3.782944520E-2
1.071412292E1,2.358832575E-2,-6.050132308E-3,2.998978436E-2,3.863159819E-2
1.072408492E1,2.843277133E-2,4.196948670E-3,1.547056317E-2,3.264008561E-2
1.073404792E1,3.323818674E-2,8.336649444E-3,3.047568798E-3,3.440297164E-2
1.074400992E1,2.822778074E-2,9.580023307E-3,2.460332930E-2,3.865110949E-2
1.075397292E1,4.432994827E-2,3.251441108E-2,3.657901168E-2,6.603298673E-2
1.076393492E1,7.185485258E-2,4.891131939E-2,5.813652635E-2,1.045719499E-1
1.077389792E1,8.816606264E-2,4.773809385E-2,1.577461839E-2,1.014939347E-1
1.078385992E1,1.056812966E-1,5.262536114E-2,4.197189867E-2,1.252980661E-1
1.079382292E1,1.042254496E-1,6.874604333E-2,5.349851489E-2,1.358346565E-1
1.080378492E1,1.004581342E-1,4.663331727E-2,9.496404469E-2,1.458926756E-1
1.081374792E1,8.235278824E-2,4.785491025E-2,2.910276175E-2,9.959440199E-2
1.082370992E1,3.786305110E-2,2.922105823E-2,-3.316540718E-2,5.820159032E-2
1.083367292E1,8.053543707E-3,1.527396882E-2,-5.935684025E-2,6.181737761E-2
1.084363492E1,-3.147172462E-3,4.348464645E-3,5.591049135E-2,5.616757857E-2
1.085359792E1,-1.432903593E-2,1.695259480E-2,8.016591132E-2,8.318224016E-2
1.086355992E1,-2.366203722E-4,1.424549840E-2,2.463958204E-2,2.846224195E-2
1.087352292E1,8.888256582E-3,1.609817041E-2,-1.579718864E-1,1.590385774E-1
1.088348592E1,1.447328857E-2,1.531924820E-2,-6.859953403E-2,7.176385941E-2
1.089344792E1,3.362065403E-2,1.132669626E-2,1.361834067E-1,1.407286847E-1
1.090341092E1,6.223236387E-2,-1.256256741E-1,2.146179575E-1,2.563504336E-1
1.091337292E1,-8.293607359E-1,-7.435843480E-1,-4.480598563E-1,1.200630896E0
1.092333592E1,-2.160668537E0,-4.189270545E-1,4.880822933E-1,2.254376350E0
1.093329792E1,-2.619806381E0,1.744890464E-1,-1.207438338E-1,2.628385622E0
1.094326092E1,-2.634042890E0,-1.919188836E-1,-3.578840965E-1,2.665163378E0
1.095322292E1,-1.794116089E0,-4.351647723E-2,3.204584080E-1,1.823030394E0
1.096318592E1,-9.625488333E-1,-1.305139099E-1,2.925701129E-1,1.014461142E0
1.097314792E1,-7.484413377E-1,-1.368303865E0,-2.804868418E-1,1.584642790E0
1.098311092E1,-7.773973344E-1,-1.769644761E0,-3.533238530E-2,1.933193620E0
1.099307292E1,-1.283725352E0,-1.813896196E0,4.186115241E-1,2.261284104E0
1.100303592E1,-2.232666472E0,-2.148340559E0,1.621286720E-1,3.102652485E0
1.101299792E1,-2.478058764E0,-2.186511476E0,-1.058708560E-1,3.306480956E0
1.102296092E1,-2.478465438E0,-2.253414148E0,-2.126398444E-1,3.356468673E0
1.103292392E1,-2.402108111E0,-2.388302688E0,1.233639711E-1,3.389591683E0
1.104288592E1,-1.977319734E0,-2.437980633E0,1.830377305E-1,3.144367298E0
1.105284892E1,-3.817756004E-1,-2.330118215E0,-3.222575963E-2,2.361406785E0
1.106281092E1,1.120914383E0,-2.030413037E0,-1.754439515E-1,2.325899124E0
1.107277392E1,1.734979104E0,-2.086694096E0,1.227014816E-1,2.716523586E0
1.108273592E1,2.408061161E0,-1.723489910E0,3.552072412E-1,2.982507034E0
1.109269892E1,1.944345531E0,-1.564798231E0,1.225120318E-1,2.498816169E0
1.110266092E1,2.516396034E-1,-2.130481993E0,-5.026383519E-2,2.145880348E0
1.111262392E1,4.574917486E-3,-2.256672655E0,3.662736815E-1,2.286208392E0
1.112258592E1,1.549951785E-1,-1.852340031E0,2.952703571E-1,1.882118934E0
1.113254892E1,9.372942703E-1,-1.509268540E0,-1.014456248E0,2.045857657E0
1.114251092E1,4.155374236E-1,-1.048037977E0,2.020037591E-1,1.145364776E0
1.115247392E1,5.160819778E-1,-7.095141573E-1,7.972859806E-1,1.185502375E0
1.116243592E1,9.469794521E-1,-7.154191142E-1,-7.667494816E-1,1.412975357E0
1.117239892E1,2.055591586E-1,-3.781703899E-1,1.245918864E-1,4.480965852E-1
1.118236192E1,-5.425055819E-2,-6.285594201E-2,7.178843004E-1,7.226699532E-1
1.119232392E1,5.312650041E-1,-1.079085376E-3,-6.841476202E-1,8.661995355E-1
1.120228692E1,-7.375764801E-1,3.941894219E-1,3.606802350E-1,9.107659394E-1
1.121224892E1,-8.538643701E-1,4.663220995E-1,1.730746597E-1,9.881778691E-1
1.122221192E1,-9.948509721E-1,9.062444223E-2,-5.382835633E-1,1.134764487E0
1.123217392E1,1.305937024E0,-1.797844420E0,8.914045179E-1,2.394225989E0
1.124213692E1,2.446451494E0,-3.158604207E0,-8.306613028E-1,4.080674411E0
1.125209892E1,7.761526083E-1,-2.309142937E0,7.344769442E-1,2.544407663E0
1.126206192E1,9.541141516E-1,-3.459377964E0,-2.324771082E-1,3.596063864E0
1.127202392E1,5.972839426E-1,-2.986954806E0,6.902111828E-2,3.046869055E0
1.128198692E1,1.485216165E0,-2.918798491E0,1.695166290E-2,3.274986877E0
1.129194892E1,2.784739963E0,-1.306153518E0,-3.258524644E-1,3.093055690E0
1.130191192E1,2.558574632E0,1.562835467E0,4.271730173E-1,3.028404799E0
1.131187392E1,2.348276305E0,2.290214769E0,3.369510645E-1,3.297426468E0
1.132183692E1,3.107255129E0,2.056094008E0,-7.076844174E-1,3.792541923E0
1.133179992E1,3.207538386E0,1.835879973E0,2.884624439E-1,3.707016098E0
1.134176192E1,2.884979073E0,1.045218669E0,3.927487046E-1,3.093515454E0
1.135172492E1,2.743751566E0,4.946965540E-1,-6.356437969E-1,2.859534992E0
1.136168692E1,1.918820242E0,-3.941526941E-1,5.945951736E-1,2.047137242E0
1.137164992E1,1.473080122E0,-2.792386988E-1,-2.115282887E-1,1.514160994E0
1.138161192E1,-4.326450792E-2,4.238027187E-2,-7.931806505E-2,9.979609478E-2
1.139157492E1,1.094422166E-1,-5.061190898E-2,2.287196875E-1,2.585572655E-1
1.140153692E1,4.869723364E-2,-4.348866642E-5,-2.110523254E-1,2.165975681E-1
1.141149992E1,1.318167426E-1,-3.568250561E-2,1.688529700E-1,2.171640401E-1
1.142146192E1,3.937528725E-2,2.449784188E-2,-1.731863415E-1,1.792876638E-1
1.143142492E1,1.212977113E-1,-5.475259647E-3,1.285890430E-1,1.768565951E-1
1.144138692E1,4.949430050E-2,1.333128624E-2,-7.484436035E-2,9.071431668E-2
1.145134992E1,7.779746007E-2,-6.048359871E-3,4.296475589E-2,8.907860405E-2
1.146131192E1,4.766218968E-2,-1.905854261E-2,-4.251452029E-2,6.665130761E-2
1.147127492E1,6.199032568E-2,-3.585768454E-2,4.206311524E-2,8.305347484E-2
1.148123792E1,4.419093986E-2,-4.273481414E-2,7.573781490E-2,9.754650230E-2
1.149119992E1,5.271015034E-2,-4.911944373E-2,5.358739257E-2,8.979247375E-2
1.150116292E1,5.082259603E-2,-4.879344318E-2,4.295656979E-2,8.251668470E-2
1.151112492E1,3.864126525E-2,-2.929054873E-2,1.212595582E-2,4.998122077E-2
1.152108792E1,6.243725396E-2,-2.058053629E-2,6.062451661E-2,8.942763091E-2
1.153104992E1,4.538733956E-2,1.326968947E-2,2.754330933E-2,5.472411845E-2
1.154101292E1,6.528895930E-2,2.257171422E-3,2.289945066E-2,6.922519679E-2
1.155097492E1,6.623570118E-2,1.384978808E-2,-6.167643070E-2,9.155854326E-2
1.156093792E1,7.567409396E-2,1.118371356E-2,8.669666648E-3,7.698575885E-2
1.157089992E1,6.645005645E-2,6.028113887E-3,4.578720689E-2,8.092228663E-2
1.158086325E1,7.833205090E-2,-1.181656502E-2,4.922361553E-2,9.326578007E-2
1.159082525E1,6.144246899E-2,-2.764183491E-2,-4.771327972E-4,6.737563126E-2
1.160078825E1,6.330832007E-2,-2.993995512E-2,-1.050920069E-2,7.081516505E-2
1.161075025E1,6.200260940E-2,-1.235682948E-2,1.914963126E-3,6.325094380E-2
1.162071325E1,5.825516087E-2,-1.554487763E-2,5.101110935E-2,7.897746682E-2
1.163067525E1,6.702841003E-2,1.212511528E-3,3.903718114E-2,7.757692599E-2
1.164063825E1,5.344542857E-2,-5.971651711E-4,2.062605321E-2,5.729052725E-2
1.165060125E1,4.692448576E-2,-1.410741275E-2,-1.006071925E-2,5.002144071E-2
1.166056325E1,4.384422281E-2,-1.252097178E-2,2.900452852E-2,5.404029314E-2
1.167052625E1,3.378387814E-2,-2.693227530E-2,4.232331634E-2,6.048107953E-2
1.168048825E1,4.523004489E-2,-3.094834400E-2,5.564327359E-2,7.810077371E-2
1.169045125E1,4.413048056E-2,-3.605281709E-2,3.094288051E-2,6.484417313E-2
1.170041325E1,5.408869081E-2,-2.172114534E-2,1.821816981E-2,6.106796492E-2
1.171037625E1,5.001943528E-2,-9.405739736E-3,3.767770350E-2,6.332472808E-2
1.172033825E1,5.002570733E-2,1.252468111E-2,2.136046350E-2,5.581853126E-2
1.173030125E1,5.358424969E-2,2.073444597E-2,-4.394182563E-2,7.233307061E-2
1.174026325E1,-2.454831522E-2,5.616583195E-2,-3.189176667E-1,3.247548284E-1
1.175022625E1,3.107912520E-2,2.810330814E-2,7.789251387E-2,8.844745146E-2
1.176018825E1,5.444442628E-1,-1.323024818E-1,1.095950646E0,1.230866086E0
1.177015125E1,-3.700874183E-1,1.537818265E-1,-1.111376771E0,1.181427896E0
1.178011325E1,9.758144114E-2,-2.093629003E-1,1.979645026E-1,3.042119425E-1
1.179007625E1,-5.883135098E-1,-1.297375824E0,4.401041347E-1,1.490968968E0
1.180003925E1,-2.870530311E0,-1.407522310E0,-8.464862072E-1,3.307204593E0
1.181000125E1,-2.267097948E0,-1.199390523E0,9.290295964E-1,2.727886860E0
1.181996425E1,-1.684492198E0,-1.847787974E0,3.603463590E-2,2.500626493E0
1.182992625E1,-1.023038645E0,-2.316997063E0,-5.258061898E-1,2.586804130E0
1.183988925E1,1.857701526E-3,-2.317905136E0,2.442481381E-1,2.330739115E0
1.184985125E1,8.718104434E-2,-1.866472021E0,3.164823014E-1,1.895119887E0
1.185981425E1,-6.016342345E-1,-1.650935758E0,-8.872389615E-2,1.759381868E0
1.186977625E1,-1.185975621E0,-1.237566994E0,-4.090945959E-2,1.714579780E0
1.187973925E1,-1.311118096E0,-1.141499725E0,3.156227607E-1,1.766824839E0
1.188970125E1,-8.991905972E-1,-1.454083834E0,-3.623344123E-2,1.710034032E0
1.189966425E1,-3.976069002E-1,-1.590408159E0,-1.304636604E-1,1.644539487E0
1.190962625E1,-2.568995210E-1,-1.462376648E0,2.555309254E-1,1.506598446E0
1.191958925E1,7.749307595E-2,-1.217271381E0,-9.214685619E-2,1.223211280E0
1.192955125E1,1.673155543E-1,-8.933073480E-1,-3.843959570E-3,9.088494313E-1
1.193951425E1,1.317828470E-1,-7.906482945E-1,2.002700597E-1,8.261958249E-1
1.194947725E1,2.950986865E-1,-1.089112693E0,-2.037491530E-1,1.146631332E0
1.195943925E1,-3.278568534E-1,-2.140703219E0,3.036944407E-1,2.186854065E0
1.196940225E1,1.706658809E-1,-2.193340439E0,-2.107026619E-1,2.210037270E0
1.197936425E1,5.219159276E-1,-1.955694977E0,1.390929812E-1,2.028912500E0
1.198932725E1,7.139467853E-1,-2.048919328E0,1.010077268E-1,2.172094148E0
1.199928925E1,9.469040962E-1,-1.965181499E0,8.795030951E-2,2.183185963E0
1.200925225E1,1.223940935E0,-1.822352586E0,8.934428573E-2,2.197039544E0
1.201921425E1,1.374253846E0,-1.675192932E0,-1.177974218E-1,2.169958807E0
1.202917725E1,1.755291747E0,-1.339433530E0,2.100875348E-1,2.217942305E0
1.203913925E1,2.112584836E0,-1.021514422E0,7.882280588E-2,2.347918107E0
1.204910225E1,8.831500036E-1,-9.472770023E-1,-7.069985390E-2,1.297029729E0
1.205906425E1,-8.287631504E-2,-8.652043871E-1,1.851912600E-1,8.886748099E-1
1.206902725E1,-1.615424155E-1,-7.349442829E-1,-8.527579308E-3,7.525368899E-1
1.207898925E1,-3.200734419E-1,-8.413213617E-1,-7.570916355E-2,9.033274707E-1
1.208895225E1,-1.872553454E-1,-9.583884662E-1,2.528926617E-1,1.008725788E0
1.209891525E1,-2.257306274E-1,-1.197105138E0,-4.123982728E-2,1.218899402E0
1.210887725E1,-6.001403075E-1,-1.346499013E0,2.222994447E-2,1.474354826E0
1.211884025E1,-1.719096385E-1,-1.473377599E0,6.179454446E-2,1.484659234E0
1.212880225E1,-2.498498438E-1,-1.884954046E0,1.119648242E-1,1.904734318E0
1.213876525E1,-1.342136533E-2,-2.490472988E0,-6.511517823E-2,2.491360235E0
1.214872725E1,8.923140706E-2,-3.000778209E0,1.014673179E-1,3.003818856E0
1.215869025E1,-1.795976125E-1,-3.399026512E0,-2.281992853E-2,3.403844486E0
1.216865225E1,5.126314627E-1,-3.315909219E0,1.036208475E-1,3.356900690E0
1.217861525E1,7.790808939E-1,-3.406229405E0,1.330358505E-2,3.494215618E0
1.218857725E1,4.078433648E-1,-2.963709201E0,9.681234956E-2,2.993205818E0
1.219854025E1,4.128717876E-1,-2.546523812E0,3.809542859E-1,2.607752444E0
1.220850225E1,4.181941060E-1,-2.270079443E0,4.739460647E-2,2.308764440E0
1.221846525E1,7.342474410E-1,-1.913251061E0,-2.357053560E-1,2.062815053E0
1.222842725E1,3.027540257E-1,-1.352330441E0,4.027819419E-1,1.443153116E0
1.223839025E1,4.059274881E-1,-1.493157122E0,-3.541336924E-1,1.587358179E0
1.224835325E1,1.020867427E0,-1.634513560E0,3.149047226E-1,1.952682736E0
1.225831525E1,1.368787868E0,-1.813091766E0,2.275987762E-1,2.283130128E0
1.226827825E1,2.411024238E0,-2.115082182E0,2.570319057E-2,3.207377615E0
1.227824025E1,3.335901726E0,-2.391701675E0,-3.141872692E-1,4.116696597E0
1.228820325E1,3.703676680E0,-2.732456792E0,5.444851202E-1,4.634652643E0
1.229816525E1,3.994359604E0,-3.023143809E0,-1.781898040E-1,5.012590024E0
1.230812825E1,3.051688454E0,-2.504882866E0,-6.601974249E-2,3.948619911E0
1.231809025E1,2.113534570E0,-1.510067562E0,4.916713142E-1,2.643685515E0
1.232805325E1,2.463525217E0,-1.017095023E0,-7.305160403E-2,2.666228670E0
1.233801525E1,2.800763965E0,-5.048394632E-1,-5.732300323E-1,2.903056035E0
1.234797825E1,2.186522878E0,4.740628628E-1,7.249477369E-1,2.351843344E0
1.235794025E1,2.558193978E0,-7.936049391E-2,-4.663359135E-1,2.601561781E0
1.236790325E1,2.091553132E0,4.672439861E-1,5.617478549E-2,2.143843990E0
1.237786525E1,2.516029121E0,6.696319804E-1,4.531223756E-1,2.642750350E0
1.238782825E1,3.664386022E0,5.722018725E-1,3.829341531E-2,3.708989928E0
1.239779125E1,1.721037003E0,5.657814836E-1,-7.035814261E-1,1.943477264E0
1.240775325E1,7.925126061E-2,1.380454818E0,8.699294490E-1,1.633619758E0
1.241771625E1,5.353337435E-2,3.322877273E-1,-6.060264802E-1,6.932164529E-1
1.242767825E1,1.485648859E-1,1.305847708E0,2.072288311E-1,1.330508756E0
1.243764125E1,2.318081502E-1,6.883127381E-1,4.779397130E-2,7.278692930E-1
1.244760325E1,-1.003015476E-1,5.781575540E-1,-3.017338693E-1,6.598256479E-1
1.245756625E1,2.161331538E-1,9.551392416E-1,3.679728824E-1,1.046139834E0
1.246752825E1,-4.126014635E-2,5.818426521E-1,-2.658161777E-1,6.410159996E-1
1.247749125E1,2.222390996E-2,8.719048211E-2,4.509255767E-2,1.006450252E-1
1.248745325E1,1.042254496E-1,-3.251645761E-2,2.130427176E-1,2.393897739E-1
1.249741625E1,-4.365791590E-2,6.861490125E-2,-2.273414987E-1,2.414501508E-1
1.250737825E1,1.149350270E-1,-4.471055176E-3,1.953806180E-1,2.267237011E-1
1.251734125E1,1.463992051E-3,2.335014308E-2,-9.396884859E-2,9.683758030E-2
1.252730325E1,4.666322029E-2,1.971982615E-2,4.419559479E-2,6.722780876E-2
1.253726625E1,5.656105347E-2,7.828307133E-3,1.066134524E-1,1.209415702E-1
1.254722925E1,5.874007777E-3,2.610017996E-2,-3.573993623E-2,4.464377228E-2
1.255719125E1,6.182378510E-2,-8.996197097E-3,8.146750152E-2,1.026648225E-1
1.256715425E1,4.466089611E-3,1.195463240E-2,-5.669577241E-2,5.811428225E-2
1.257711675E1,5.766065435E-2,1.131699353E-2,5.991291046E-2,8.391890278E-2
1.258707975E1,4.218423026E-2,2.406562300E-2,2.069446564E-2,5.279132885E-2
1.259704175E1,5.575469503E-2,3.225687778E-2,4.150295198E-2,7.662628273E-2
1.260700475E1,4.855937640E-2,2.210846856E-2,4.030661166E-2,6.686867997E-2
1.261696675E1,3.638898174E-2,4.491463786E-2,-7.890232801E-3,5.834156717E-2
1.262692975E1,4.731273632E-2,3.936771328E-2,3.716958046E-2,7.190194419E-2
1.263689175E1,2.248068038E-2,2.932649083E-2,2.594409585E-3,3.704261082E-2
1.264685475E1,3.029501815E-2,2.159630729E-2,1.142779827E-2,3.892021566E-2
1.265681675E1,1.812137555E-2,1.953361060E-2,-2.149845779E-2,3.423638244E-2
1.266677975E1,1.882625740E-2,2.826445375E-2,1.248555958E-2,3.618282066E-2
1.267674175E1,3.359778594E-2,8.817400206E-3,-9.678018987E-2,1.028249139E-1
1.268670475E1,3.627419359E-2,4.151194207E-3,9.512542784E-2,1.018915922E-1
1.269666775E1,4.354922164E-2,1.445760615E-3,7.178100407E-2,8.397105141E-2
1.270662975E1,8.097917679E-2,-5.017568842E-3,2.154938704E-1,2.302616148E-1
1.271659275E1,-2.488934037E-2,-1.545258481E-1,-1.512481731E-1,2.176550640E-1
1.272655475E1,-2.198283090E0,-2.253891865E-1,-5.854694241E-1,2.286049710E0
1.273651775E1,-5.721999868E0,6.677863799E-1,4.868730891E-1,5.781372376E0
1.274647975E1,-5.550495771E0,1.519510669E0,2.416285855E-1,5.759800374E0
1.275644275E1,-4.942082457E0,9.142785332E-1,-3.713975966E-2,5.026078353E0
1.276640475E1,-3.582732872E0,-3.055273784E-1,-2.230706924E-1,3.602649351E0
1.277636775E1,-2.514087553E0,-3.503404574E-1,-1.516147935E-1,2.542904187E0
1.278632975E1,-1.770499039E0,-5.914549264E-1,6.468774676E-3,1.866688946E0
1.279629275E1,-6.401643524E-1,-1.645500771E0,9.630831957E-2,1.768264256E0
1.280625475E1,-1.022976883E0,-2.385985875E0,5.028383267E-1,2.644287557E0
1.281621775E1,-6.550720480E-1,-2.587462508E0,5.408499062E-1,2.723343577E0
1.282617975E1,-1.236929866E-1,-2.770237114E0,3.261278683E-1,2.792109061E0
1.283614275E1,8.576660105E-1,-2.911116419E0,-1.168261408E0,3.251926277E0
1.284610475E1,8.591366583E-1,-2.680301090E0,-3.449143875E-1,2.835682575E0
1.285606775E1,7.624794792E-1,-2.307064836E0,7.649456155E-1,2.547364306E0
1.286603075E1,1.176746449E0,-2.120725183E0,3.571695668E-1,2.451484776E0
1.287599275E1,7.053208997E-1,-2.085510327E0,2.473629498E-1,2.215405002E0
1.288595575E1,8.178554620E-1,-1.889083496E0,-1.014667332E-1,2.061023898E0
1.289591775E1,1.337294911E0,-1.700718075E0,-4.248411477E-1,2.204833248E0
1.290588075E1,1.033262647E0,-1.634201611E0,1.325557941E-1,1.937993200E0
1.291584275E1,1.636742373E-1,-1.666830244E0,4.808457792E-1,1.742505375E0
1.292580575E1,3.777245763E-1,-1.965368025E0,8.414844990E-2,2.003104663E0
1.293576775E1,-1.346276362E-1,-2.140267601E0,-1.330650866E-1,2.148621959E0
1.294573075E1,-6.465940969E-1,-2.375943721E0,2.423624110E-1,2.474253833E0
1.295569275E1,-8.555410592E-1,-2.585193788E0,-1.530076003E-1,2.727377633E0
1.296565575E1,-1.170225049E0,-2.139022729E0,-2.350814581E-1,2.449511828E0
1.297561775E1,-6.660287800E-1,-1.580241167E0,3.283743685E-1,1.746020105E0
1.298558075E1,4.820213984E-1,-1.480912029E0,3.618450004E-1,1.598867371E0
1.299554375E1,2.268557413E0,-1.669887899E0,-8.901567221E-2,2.818297735E0
1.300550575E1,3.175562595E0,-1.926516640E0,-3.901852852E-1,3.734689908E0
1.301546875E1,2.583570309E0,-1.718544774E0,4.147979701E-1,3.130541333E0
1.302543075E1,1.997408282E0,-2.173269579E0,1.670876956E-1,2.956460520E0
1.303539375E1,1.023697918E0,-2.451317401E0,-3.631039059E-1,2.681186094E0
1.304535575E1,-3.032691746E-2,-2.064064640E0,4.294499230E-1,2.108485190E0
1.305531875E1,-8.265750492E-1,-2.094135555E0,2.503309965E-2,2.251500986E0
1.306528075E1,-2.443425560E0,-1.882734881E0,-1.613007063E-1,3.088856911E0
1.307524375E1,-2.661844646E0,-1.666260579E0,2.181993771E-1,3.147928240E0
1.308520575E1,-2.470578129E0,-1.430413136E0,-4.256188273E-3,2.854795290E0
1.309516875E1,-2.834618466E0,-1.627546018E0,4.422307670E-2,3.268933094E0
1.310513075E1,-1.217582234E0,-1.721775653E0,5.728663355E-1,2.185221667E0
1.311509375E1,1.510308760E0,-1.975772561E0,-2.884373009E-1,2.503578606E0
1.312505575E1,2.706466210E0,-1.903985417E0,-1.870992064E-1,3.314381682E0
1.313501875E1,4.068753729E0,-1.961331254E0,4.857381445E-1,4.542853590E0
1.314498175E1,4.826686194E0,-1.720132877E0,-2.018224955E-1,5.128010243E0
1.315494375E1,4.206619087E0,-8.114457442E-1,2.274508417E-2,4.284227548E0
1.316490675E1,3.177398913E0,-5.880447206E-1,-1.632525069E-1,3.235477063E0
1.317486875E1,2.492960393E0,-5.891316084E-1,2.082035619E-1,2.570073209E0
1.318483175E1,1.647082881E0,-9.108125961E-1,-1.147668099E-1,1.885638625E0
1.319479375E1,1.060709989E0,-8.665801638E-1,2.504292297E-1,1.392401401E0
1.320475675E1,1.609396115E0,-9.584683538E-1,-1.028449219E-1,1.876004935E0
1.321471875E1,1.878561285E0,-8.974748048E-1,-1.879178166E-2,2.082019851E0
1.322468175E1,1.878606016E0,-4.908716710E-1,2.477243078E-1,1.957417404E0
1.323464375E1,2.240762089E0,-4.612615536E-1,-1.399227011E-1,2.292019922E0
1.324460675E1,2.169228568E0,-1.001170131E-1,1.628116268E-1,2.177632573E0
1.325456875E1,1.956770280E0,1.897313123E-1,-4.108370662E-2,1.966376304E0
1.326453175E1,1.300433625E0,3.225106711E-1,-5.687001944E-3,1.339840695E0
1.327449375E1,5.881561466E-1,4.015128768E-1,1.750095034E-1,7.333270548E-1
1.328445675E1,3.055140211E-1,4.327534172E-1,-1.958513188E-1,5.647761293E-1
1.329441975E1,1.145552796E0,7.987876917E-1,2.408222544E-1,1.417162074E0
1.330438175E1,4.041295789E-1,7.597895408E-1,-2.513946050E-1,8.965490005E-1
1.331434475E1,-8.257053307E-2,6.223721523E-1,8.843913674E-2,6.340240293E-1
1.332430675E1,1.554517365E-1,5.798760142E-1,2.132888854E-2,6.007298525E-1
1.333426975E1,-2.602245768E-2,8.505432978E-2,-1.865828973E-1,2.066992619E-1
1.334423175E1,1.433974821E-1,-8.215504272E-2,2.416899812E-1,2.927906008E-1
1.335419475E1,-2.153196508E-2,2.445033325E-2,-1.500658661E-1,1.535617416E-1
1.336415675E1,9.136575954E-2,-2.642968884E-2,1.147580391E-1,1.490491127E-1
1.337411975E1,5.375992654E-2,-7.880584896E-4,7.561034560E-3,5.429475096E-2
1.338408175E1,3.418067111E-2,3.330245130E-3,-3.238948166E-2,4.720685684E-2
1.339404475E1,6.347810403E-2,-1.523002334E-2,6.415331125E-2,9.152633854E-2
1.340400675E1,1.186335645E-2,-1.695107818E-3,-3.718127489E-2,3.906481562E-2
1.341396975E1,5.707020435E-2,-5.557120666E-3,1.048733211E-1,1.195253249E-1
1.342393175E1,1.282080604E-2,1.358454376E-3,1.133190393E-3,1.294227902E-2
1.343389475E1,3.929805375E-2,-2.849470614E-2,6.774817944E-2,8.334327281E-2
1.344385775E1,2.631386829E-2,-1.504897892E-2,-4.412308931E-3,3.063266069E-2
1.345381975E1,3.934082522E-2,-1.692920594E-2,-9.049735665E-3,4.377437902E-2
1.346378275E1,5.117262041E-2,-2.059215764E-2,1.100504458E-2,5.624753365E-2
1.347374475E1,5.595878113E-2,-4.429393765E-3,-2.920099497E-3,5.620971175E-2
1.348370775E1,4.314696061E-2,-1.867231574E-2,2.686444759E-2,5.414807596E-2
1.349366975E1,4.512460315E-2,-2.238816647E-2,-8.463844657E-3,5.107931552E-2
1.350363275E1,5.148939789E-2,-1.666277390E-2,7.553433180E-3,5.464302775E-2
1.351359475E1,4.792751166E-2,-2.149412720E-2,-6.969881058E-3,5.298700897E-2
1.352355775E1,5.856413597E-2,-1.724089907E-2,4.482124686E-2,7.573606006E-2
1.353351975E1,4.297031532E-2,-6.646584850E-3,5.739159107E-2,7.200291532E-2
1.354348275E1,1.678111606E-2,-1.129090033E-2,-6.676350832E-3,2.129938842E-2
1.355344475E1,3.294689490E-2,-1.307611009E-2,4.032415330E-2,5.368910391E-2
1.356340775E1,1.785714536E-2,2.368396427E-3,-4.587725401E-3,1.858854933E-2
1.357337075E1,3.820258704E-2,-9.044509716E-3,6.082273722E-2,7.239230743E-2
1.358333300E1,3.792944441E-2,1.731579825E-3,-7.420701385E-3,3.868730969E-2
1.359329600E1,7.709979588E-2,-1.299105138E-2,1.777857614E-1,1.942187501E-1
1.360325800E1,-2.724296344E-2,-2.577284552E-2,-1.481555808E-1,1.528283178E-1
1.361322100E1,9.548526001E-3,-2.867012809E-1,9.949037433E-3,2.870327196E-1
1.362318300E1,6.780509386E-2,-4.998644328E-1,1.407477432E-1,5.237097566E-1
1.363314600E1,-2.291442501E-2,-3.630155764E-1,-1.490426034E-1,3.930891466E-1
1.364310800E1,2.123555236E-1,-2.517849798E-1,1.996210188E-1,3.851481475E-1
1.365307100E1,-6.914580285E-1,-7.243489820E-1,-1.320622891E-1,1.010067375E0
1.366303300E1,-5.651244466E0,-3.422817371E0,1.266103452E-1,6.608197405E0
1.367299600E1,-2.494879742E0,-1.645204902E0,3.994291484E-2,2.988765553E0
1.368295800E1,-1.702603217E0,-1.336309801E0,2.662149578E-1,2.180699889E0
1.369292100E1,-1.559874291E0,-1.132918863E0,6.901468635E-3,1.927890190E0
1.370288300E1,-1.235340228E0,-1.949743827E-1,-2.526318759E-1,1.275893159E0
1.371284600E1,-1.512249304E0,2.393831267E-1,2.220667255E-1,1.547099179E0
1.372280900E1,-7.212513464E-1,6.691718046E-1,-8.897474170E-2,9.878820341E-1
1.373277100E1,-5.004795599E-1,7.056372341E-1,9.702811182E-2,8.705275128E-1
1.374273400E1,-9.749789905E-2,6.105142913E-1,9.616857111E-2,6.256851718E-1
1.375269600E1,5.828019974E-1,2.323062234E-1,-2.112645793E-1,6.620098731E-1
1.376265900E1,2.928601714E-1,-1.454957189E-1,2.417911381E-1,4.066928062E-1
1.377262100E1,5.771330122E-1,-3.229506740E-1,-4.009728134E-2,6.625612754E-1
1.378258400E1,1.001237009E0,-4.080314990E-1,-5.019016027E-2,1.082351285E0
1.379254600E1,7.685736667E-1,-6.329181173E-1,2.839407921E-1,1.035332409E0
1.380250900E1,1.109468093E0,-7.843046502E-1,-2.781368458E-1,1.386871782E0
1.381247100E1,8.729227117E-1,-6.968875337E-1,2.486516762E-1,1.144322486E0
1.382243400E1,7.699139216E-1,-8.664917247E-1,-4.026158810E-2,1.159826000E0
1.383239600E1,5.255995638E-1,-8.384277939E-1,4.586965263E-2,9.906160165E-1
1.384235900E1,6.299992969E-2,-7.671241419E-1,2.229689509E-1,8.013511049E-1
1.385232100E1,-7.938396499E-2,-7.992167312E-1,-3.038324350E-1,8.586986351E-1
1.386228400E1,-1.103700784E-1,-6.257791787E-1,1.455681878E-1,6.518981761E-1
1.387224700E1,-5.719218275E-2,-4.831222830E-1,2.193454313E-1,5.336576658E-1
1.388220900E1,9.357095470E-2,-2.249867884E-1,-2.143361217E-1,3.245220356E-1
1.389217200E1,5.668709660E-1,-1.328967964E-1,1.483011764E-1,6.008306663E-1
1.390213400E1,1.227595591E0,-3.038404384E-1,2.548965025E-1,1.290070608E0
1.391209700E1,2.340324676E0,-6.145033349E-1,-4.440849191E-1,2.460070193E0
1.392205900E1,2.477521113E0,-5.181907030E-1,2.820065331E-1,2.546794093E0
1.393202200E1,2.069556053E0,-7.674567023E-1,3.451593858E-1,2.234096472E0
1.394198400E1,1.173960324E0,-1.277435941E0,-6.186763465E-1,1.841951641E0
1.395194700E1,6.277691323E-1,-9.815386163E-1,6.085226566E-1,1.314462613E0
1.396190900E1,1.004209879E0,-1.340053627E0,-3.002966237E-1,1.701281655E0
1.397187200E1,8.118155075E-1,-6.651141293E-1,2.005986732E-1,1.068485400E0
1.398183400E1,9.853146020E-1,-1.968199101E-1,8.157392085E-2,1.008085932E0
1.399179700E1,6.968113006E-1,1.346729065E-1,-2.305212146E-1,7.462056089E-1
1.400175900E1,5.365993824E-1,7.158487384E-1,2.521050417E-1,9.294811809E-1
1.401172200E1,4.954178446E-1,6.794678742E-1,-1.012018543E-1,8.469694494E-1
1.402168500E1,1.809064204E-1,7.421031021E-1,-4.222274423E-2,7.650012466E-1
1.403164700E1,2.587089967E-1,7.937607674E-1,2.011711156E-1,8.587527692E-1
1.404161000E1,1.410562570E-1,5.276049760E-1,-2.326414150E-1,5.936210124E-1
1.405157200E1,1.556145449E-1,6.737836497E-1,1.152521288E-1,7.010587325E-1
1.406153500E1,1.248026968E-1,6.801427160E-1,1.869004011E-2,6.917507824E-1
1.407149700E1,5.990833776E-2,7.717867848E-1,-3.803964615E-2,7.750424922E-1
1.408146000E1,1.106944983E-1,7.018681920E-1,5.864464939E-2,7.129596242E-1
1.409142200E1,6.615073839E-4,4.423903960E-1,-1.214513469E-1,4.587593375E-1
1.410138500E1,8.278952044E-2,-8.010197567E-2,1.357220614E-1,1.780194067E-1
1.411134700E1,6.535422656E-3,1.663911095E-2,-3.389455497E-2,3.831987238E-2
1.412131000E1,3.296809791E-3,-6.620071381E-3,-2.460566819E-2,2.569305756E-2
1.413127200E1,2.891769280E-2,-3.219142551E-2,1.595178902E-2,4.611919780E-2
1.414123500E1,-3.021650101E-2,-1.167283315E-2,-7.101384938E-2,7.805292288E-2
1.415119800E1,1.855537714E-2,-2.222674677E-2,1.053177094E-1,1.092252270E-1
1.416116000E1,-1.152298340E-2,1.036048042E-2,-1.638214409E-2,2.254979703E-2
1.417112300E1,1.055631075E-2,1.699122297E-2,6.968770087E-2,7.250181382E-2
1.418108500E1,1.724077802E-3,3.541899718E-2,-3.749000788E-2,5.160405504E-2
1.419104800E1,2.199346571E-2,3.864976656E-2,8.466183543E-3,4.526801578E-2
1.420101000E1,1.235869328E-2,4.540081557E-2,4.783022404E-2,6.709472174E-2
1.421097300E1,4.479785800E-2,2.602073092E-2,8.255157530E-2,9.746121846E-2
1.422093500E1,4.466825995E-2,3.023600696E-2,3.928334892E-2,6.672818794E-2
1.423089800E1,4.359273315E-2,1.654639604E-2,-3.047802687E-2,5.570475498E-2
1.424086000E1,5.341200808E-2,4.907111283E-3,3.945701122E-3,5.378188269E-2
1.425082300E1,3.092887689E-2,-4.932985213E-3,1.741651654E-2,3.583664071E-2
1.426078500E1,1.942396617E-2,-1.359269332E-2,9.300873578E-2,9.598268961E-2
1.427074800E1,4.389251259E-3,-1.159493728E-2,-7.728849649E-3,1.460969589E-2
1.428071000E1,1.688623461E-2,-2.157224234E-2,-2.149728835E-2,3.482298042E-2
1.429067300E1,5.302054156E-4,-9.252853319E-4,-3.930966139E-2,3.932412426E-2
1.430063600E1,2.082929649E-2,7.163752802E-3,7.834567308E-2,8.138318891E-2
1.431059800E1,-2.273929634E-3,8.942567166E-3,2.835022509E-2,2.981401560E-2
1.432056100E1,1.684746369E-2,1.248314761E-2,-2.553596020E-2,3.304165961E-2
1.433052300E1,1.102539563E-2,2.154709931E-2,-4.963759840E-2,5.522434257E-2
1.434048600E1,2.119873774E-2,1.977234146E-2,7.190496504E-2,7.752842038E-2
1.435044800E1,1.251792027E-2,3.213739358E-2,6.456378579E-2,7.319831166E-2
1.436041100E1,1.459007185E-2,3.835172301E-2,3.462019444E-2,5.368689521E-2
1.437037300E1,2.078825863E-2,2.685048737E-2,-4.755949795E-2,5.843805450E-2
1.438033600E1,1.384702893E-3,2.479601333E-2,1.471042514E-2,2.886444676E-2
1.439029800E1,2.030194845E-2,3.139043005E-2,6.619925201E-2,7.602545084E-2
1.440026100E1,1.877088700E-2,1.392477863E-2,5.885924220E-2,6.332974065E-2
1.441022300E1,8.853631244E-3,-3.326462712E-3,2.128444970E-2,2.329119875E-2
1.442018600E1,1.970428078E-2,-1.370132362E-2,-5.116313696E-2,5.651240159E-2
1.443014900E1,1.608659932E-2,-6.032353118E-3,-2.870690525E-2,3.345525924E-2
1.444011100E1,2.786777955E-2,-1.715509119E-2,2.818007112E-2,4.318595488E-2
1.445007400E1,4.398405806E-3,-2.048624994E-2,4.296475589E-2,4.780170143E-2
1.446003600E1,-6.310822652E-2,5.420141599E-1,-1.627215797E-1,5.694210308E-1
1.446999900E1,1.151408125E-1,1.829207679E-1,1.666129017E-1,2.729052455E-1
1.447996100E1,-6.047633537E-3,4.072516266E-1,-6.659335434E-2,4.127046597E-1
1.448992400E1,-3.224122734E-4,3.003575809E-1,6.589461207E-2,3.075010248E-1
1.449988600E1,5.677893992E-2,2.559119811E-1,4.149125755E-2,2.653984072E-1
1.450984900E1,-1.936472200E-3,6.592386642E-2,-2.422910750E-2,7.026205049E-2
1.451981100E1,2.816930402E-2,-4.528876830E-2,3.324434459E-2,6.284718506E-2
1.452977400E1,3.337044345E-2,-1.049820427E-1,1.108222783E-2,1.107141886E-1
1.453973600E1,4.571244019E-2,-3.050249381E-1,6.587473154E-2,3.153875716E-1
1.454969900E1,4.436802370E-2,-1.763144192E-1,3.173225462E-2,1.845595620E-1
1.455966100E1,-8.442157425E-4,-3.655326931E-1,-5.164436281E-2,3.691639238E-1
1.456962400E1,8.306107792E-2,-4.141290486E-1,1.552640408E-1,4.500099265E-1
1.457958700E1,3.360478204E-2,-1.700979336E-1,3.370568991E-2,1.766314296E-1
1.458954900E1,-6.773614696E-2,7.390297690E-2,-1.902327293E-1,2.150309906E-1
1.459951200E1,9.639795556E-2,-3.342571791E-2,1.777056545E-1,2.049125279E-1
1.460947400E1,-2.751183258E-2,2.394553581E-2,-1.067146093E-1,1.127754293E-1
1.461943700E1,3.873565210E-2,-9.386206381E-3,7.246454358E-2,8.270224719E-2
1.462939900E1,1.104185920E-2,1.880428009E-3,1.377896369E-2,1.775720992E-2
1.463936200E1,2.205881748E-2,-8.920110203E-4,1.660024524E-3,2.213916877E-2
1.464932400E1,2.021533200E-2,7.154123168E-3,1.063842416E-2,2.393777756E-2
1.465928700E1,4.386450991E-4,2.015770951E-2,-1.675110340E-2,2.621307169E-2
1.466924900E1,3.344164244E-2,2.160451166E-2,7.367374778E-2,8.374317575E-2
1.467921200E1,-2.946280633E-3,3.306839822E-2,2.472319722E-2,4.139367115E-2
1.468917400E1,7.642437624E-3,2.874778094E-2,5.137071311E-2,5.936153576E-2
1.469913700E1,4.524163197E-3,4.109132627E-2,2.125462890E-3,4.139423559E-2
1.470909900E1,1.489081174E-2,2.407337056E-2,1.050978541E-2,3.019468553E-2
1.471906200E1,4.117926748E-3,1.843066128E-2,2.098682642E-2,2.823284398E-2
1.472902500E1,8.321920627E-3,-2.245860714E-3,5.451709986E-2,5.519431520E-2
1.473898700E1,3.056748927E-2,8.596028276E-3,2.876888573E-2,4.284754238E-2
1.474895000E1,4.449332770E-2,1.048429521E-2,-1.314220190E-2,4.756357983E-2
1.475891200E1,2.637247063E-2,-3.371742088E-3,3.026518822E-3,2.675884280E-2
1.476887500E1,2.424551625E-2,-1.594276238E-2,-2.208493352E-3,2.910144624E-2
1.477883700E1,2.410849726E-2,-1.022709081E-2,1.037237585E-2,2.816734292E-2
1.478880000E1,7.638330868E-3,-6.583855189E-3,-6.240148544E-3,1.185878162E-2
1.479876200E1,-2.535498887E-4,-7.034200430E-4,1.550681591E-3,1.721540211E-3
1.480872500E1,4.202356202E-3,6.687588450E-3,2.131193161E-2,2.272844178E-2
1.481868700E1,1.183122417E-2,3.476955425E-3,2.864901781E-2,3.119027582E-2
1.482865000E1,1.041806293E-2,4.685209449E-3,4.257006884E-2,4.407604773E-2
1.483861200E1,2.961725505E-3,2.042152857E-2,2.176275194E-2,2.999046547E-2
1.484857500E1,-2.993519740E-3,2.057043158E-2,6.566423178E-4,2.079747568E-2
1.485853800E1,8.393329749E-3,2.528849507E-2,2.086286545E-2,3.384102720E-2
1.486850000E1,2.059253679E-2,2.981513534E-2,4.675842941E-2,5.915526678E-2
1.487846300E1,1.763226053E-2,2.557877278E-2,5.917966962E-2,6.683863796E-2
1.488842500E1,2.364232799E-2,1.356924964E-2,-4.586555958E-3,2.764273330E-2
1.489838800E1,7.833689541E-3,1.399510967E-2,-8.477877975E-3,1.814122932E-2
1.490835000E1,2.098952390E-2,5.006130226E-3,5.443757772E-3,2.225434682E-2
1.491831300E1,3.099344522E-2,-9.862644821E-3,3.672986984E-2,4.906066396E-2
1.492827500E1,1.796194413E-2,-8.435339481E-3,3.104345262E-2,3.684402719E-2
1.493823800E1,1.603021252E-2,-1.305436576E-2,1.950338781E-2,2.842123000E-2
1.494820000E1,-9.998641921E-2,7.684118450E-3,-2.378735036E-1,2.581475032E-1
1.495816300E1,-7.899006549E-1,1.789640484E-1,-9.899751252E-1,1.279070727E0
1.496812500E1,-2.899666950E-1,-3.398610775E-1,1.182980019E0,1.264526774E0
1.497808800E1,-1.011894290E-1,-5.585491356E-1,1.135390701E0,1.269381141E0
1.498805100E1,6.892845453E-1,1.815365492E-1,5.492067468E-1,8.998315142E-1
1.499801300E1,-6.604847424E-1,6.269257446E-1,-2.879092973E0,3.019677522E0
1.500797600E1,-1.707113467E0,6.506305761E-1,1.908911258E0,2.642252586E0
1.501793800E1,-4.463658594E0,-4.157861860E-2,1.068819566E0,4.590027461E0
1.502790100E1,-6.185754821E0,-4.514654940E-1,-1.446487716E0,6.368650603E0
1.503786300E1,-5.233966107E0,4.619266013E-1,1.677121782E-1,5.256986282E0
1.504782600E1,-2.908876936E0,1.318140310E0,7.820066214E-2,3.194553842E0
1.505778800E1,-1.554446906E0,1.192928326E0,-4.516272426E-2,1.959954807E0
1.506775100E1,-9.426271503E-1,1.629828954E-1,5.671272933E-2,9.582931192E-1
1.507771300E1,-4.398432758E-1,-9.636148538E-1,-2.988804281E-2,1.059674001E0
1.508767600E1,1.128194861E-1,-1.836511911E0,1.183780503E-1,1.843778077E0
1.509763800E1,4.990480701E-2,-2.312685911E0,-1.024970126E-1,2.315493954E0
1.510760100E1,-8.425149976E-1,-2.753329597E0,3.184218228E-2,2.879525884E0
1.511756300E1,-1.098236688E0,-3.624872586E0,-2.289126456E-2,3.787657468E0
1.512752600E1,-2.444108734E-1,-3.873359955E0,9.544351637E-2,3.882236917E0
1.513748900E1,6.355878829E-1,-3.887927708E0,8.808245659E-2,3.940521836E0
1.514745100E1,1.606341675E0,-3.940329870E0,1.263975066E-1,4.257054074E0
1.515741400E1,1.606243588E0,-3.635757177E0,3.175956112E-1,3.987432218E0
1.516737600E1,2.144303349E0,-2.851675672E0,3.756561238E-1,3.587646654E0
1.517733900E1,2.073399282E0,-2.455113705E0,4.482083756E-1,3.244604542E0
1.518730100E1,1.614903607E0,-2.396368484E0,-6.458314008E-1,2.961012288E0
1.519726400E1,1.166984230E0,-2.179840533E0,-2.640672755E-1,2.486621899E0
1.520722600E1,2.671047871E0,-1.330176511E0,8.853403705E-1,3.112506040E0
1.521718900E1,4.359867885E0,-1.404587885E0,-2.094186133E-1,4.585321282E0
1.522715100E1,4.399222570E0,-1.325415415E0,-4.459794170E-1,4.616143725E0
1.523711400E1,3.129024313E0,-6.808084215E-1,6.794751102E-1,3.273527101E0
1.524707600E1,3.582040561E0,-7.674868885E-1,-5.070337039E-1,3.698260927E0
1.525703900E1,1.988351091E0,4.224576764E-2,3.376135540E-1,2.017252507E0
1.526700200E1,1.194920107E0,-3.574167578E-1,-2.484306514E-2,1.247476644E0
1.527696400E1,7.385154699E-1,-4.104634291E-1,-1.570649832E-1,8.593920728E-1
1.528692700E1,6.234045056E-2,-4.147805015E-1,1.612697160E-1,4.493741398E-1
1.529688900E1,3.405411818E-1,-6.145021655E-1,-1.100153625E-1,7.111150314E-1
1.530685200E1,-1.178976833E-3,-6.961541466E-1,2.331822824E-1,7.341702546E-1
1.531681400E1,4.234612048E-1,-6.598561668E-1,-6.399485171E-2,7.866542403E-1
1.532677700E1,4.101711414E-1,-8.478133059E-1,1.096762240E-2,9.418853729E-1
1.533673900E1,9.754759307E-1,-5.681772340E-1,2.828356683E-2,1.129238071E0
1.534670200E1,2.049866577E0,4.768769450E-1,-9.225736856E-2,2.106626694E0
1.535666400E1,2.329658185E0,1.564269058E0,1.338720024E-1,2.809300030E0
1.536662700E1,2.226289060E0,2.286521229E0,-5.116664529E-2,3.191733124E0
1.537658900E1,1.418026102E0,1.830974159E0,9.938220084E-2,2.318003714E0
1.538655200E1,2.744599887E-1,6.496879318E-1,-3.431368339E-1,7.843249205E-1
1.539651400E1,2.701733766E-1,8.572056153E-1,2.124872321E-1,9.235507264E-1
1.540647700E1,5.054682947E-1,9.156590608E-1,1.769852775E-1,1.060779667E0
1.541644000E1,2.479338939E-1,9.641553558E-1,-1.527988547E-1,1.007181342E0
1.542640200E1,3.397354355E-1,1.170081208E0,1.315968508E-1,1.225490894E0
1.543636500E1,2.355487420E-1,9.191309913E-1,-1.326183593E-1,9.580566884E-1
1.544632700E1,1.768174442E-1,8.866946588E-1,-9.011553347E-2,9.086322886E-1
1.545629000E1,1.979284143E-1,8.843290946E-1,1.082202673E-1,9.126473749E-1
1.546625200E1,3.287019360E-2,1.590762646E0,-7.875848651E-2,1.593050265E0
1.547621500E1,2.883491587E-2,3.987596422E0,-2.986518019E-1,3.998868537E0
1.548617700E1,5.159242126E-1,-1.964965152E0,4.674767053E-1,2.084658320E0
1.549614000E1,-1.354783513E-1,-2.982100083E-2,-2.755915529E-1,3.085358646E-1
1.550610200E1,6.825220486E-2,-2.976269312E-2,-2.769650638E-2,7.944355125E-2
1.551606500E1,9.798311745E-2,2.409008995E-2,1.805146569E-1,2.068007860E-1
1.552602700E1,-1.279683702E-2,6.321571022E-2,-1.351747620E-1,1.497738340E-1
1.553599000E1,1.451660913E-1,-2.149566209E-2,2.279700744E-1,2.711191848E-1
1.554595300E1,9.810851282E-4,3.547346765E-2,-1.471521986E-1,1.513707335E-1
1.555591500E1,1.152762029E-1,-2.625829233E-2,1.029811621E-1,1.567903716E-1
1.556587800E1,4.242237182E-2,8.653129991E-3,-1.467709601E-2,4.571598667E-2
1.557584000E1,7.668011198E-2,1.334681790E-2,8.816314816E-2,1.176040723E-1
1.558580304E1,7.854325416E-2,1.629520331E-2,7.678622067E-2,1.110436856E-1
1.559576504E1,5.655424238E-2,1.770560654E-2,-4.415992677E-2,7.390514168E-2
1.560572804E1,6.949479757E-2,3.505314421E-3,3.906758666E-2,7.980031608E-2
1.561569004E1,4.125470113E-2,1.984994497E-2,-2.844085693E-2,5.389668843E-2
1.562565304E1,3.271498200E-2,3.513458496E-2,8.128272951E-2,9.440122469E-2
1.563561504E1,1.493364031E-2,4.744911348E-2,1.287673831E-2,5.138328885E-2
1.564557804E1,5.356343726E-2,3.626289658E-2,1.677039921E-2,6.682279378E-2
1.565554004E1,4.708751801E-2,4.242076384E-2,-6.974851191E-2,9.424229661E-2
1.566550304E1,5.322134773E-2,3.832177430E-2,-3.232516229E-2,7.311625235E-2
1.567546604E1,4.196701077E-2,3.654957460E-2,-4.781268239E-3,5.585661932E-2
1.568542804E1,5.753457377E-2,3.309430869E-2,2.485768318E-2,7.087570006E-2
1.569539104E1,5.371276053E-2,2.950274784E-2,3.279235482E-2,6.950403807E-2
1.570535304E1,3.939079151E-2,2.494142627E-2,-2.083362937E-3,4.666957897E-2
1.571531604E1,4.125153084E-2,4.528211709E-3,8.698318005E-3,4.240111124E-2
1.572527804E1,2.478263326E-2,6.882720999E-4,3.311862946E-3,2.501241823E-2
1.573524104E1,2.468224387E-2,5.884473380E-3,2.322221696E-2,3.439638862E-2
1.574520304E1,2.044113730E-2,-8.293727227E-4,-1.644178569E-2,2.624614772E-2
1.575516604E1,4.273694289E-2,5.721317790E-3,2.098390281E-2,4.795314319E-2
1.576512804E1,5.628948228E-2,1.652386598E-2,4.628480494E-2,7.472501008E-2
1.577509104E1,7.349178517E-2,1.010079095E-2,3.595920682E-2,8.243866217E-2
1.578505304E1,7.033858276E-2,1.659299104E-2,2.443551421E-2,7.628851769E-2
1.579501604E1,6.645846639E-2,3.483566433E-2,1.126349151E-2,7.587567137E-2
1.580497904E1,7.156502254E-2,1.986810789E-2,3.970668733E-2,8.421944657E-2
1.581494104E1,6.650268596E-2,2.257799998E-2,3.192521274E-2,7.714656526E-2
1.582490404E1,6.336351687E-2,1.179365125E-2,1.396256626E-2,6.594678716E-2
1.583486604E1,5.339227829E-2,3.690144908E-2,1.426252842E-2,6.645202813E-2
1.584482904E1,5.295665159E-2,1.710272206E-2,7.827082872E-3,5.619762696E-2
1.585479104E1,4.706445806E-2,3.602769233E-2,1.815794349E-2,6.199006968E-2
1.586475404E1,5.551592306E-2,2.895848170E-2,1.531736612E-2,6.446109742E-2
1.587471604E1,3.886414010E-2,2.245270511E-2,2.085994184E-2,4.949426761E-2
1.588467904E1,4.543956251E-2,4.135942111E-2,3.149017990E-2,6.904337032E-2
1.589464104E1,4.678208322E-2,2.704551028E-2,5.296407938E-3,5.429617734E-2
1.590460404E1,3.604339987E-2,1.775686104E-2,7.393219471E-3,4.085452830E-2
1.591456604E1,3.441999125E-2,1.247881701E-2,8.295444846E-3,3.754025942E-2
1.592452904E1,2.518056369E-2,-5.217178166E-4,-1.026537180E-2,2.719762555E-2
1.593449204E1,4.103413319E-2,1.544713777E-2,-2.629492879E-3,4.392412076E-2
1.594445404E1,4.570371048E-2,-8.134938776E-3,2.910685480E-2,5.479247554E-2
1.595441704E1,6.771019994E-2,1.504053701E-2,3.928861141E-2,7.971501688E-2
1.596437904E1,6.989621806E-2,2.473372221E-3,3.989028990E-2,8.051604870E-2
1.597434204E1,6.464995456E-2,2.189791398E-2,3.090545833E-2,7.492851671E-2
1.598430404E1,7.355666642E-2,7.930377591E-3,-1.433380598E-1,1.613049083E-1
1.599426704E1,7.551240474E-2,2.987125034E-2,1.559048957E-1,1.757860955E-1
1.600422904E1,6.721598688E-2,5.974356048E-2,1.862852740E-1,2.068561946E-1
1.601419204E1,-3.720854895E-2,7.684980914E-2,-9.121948779E-2,1.249454450E-1
1.602415404E1,1.353846771E-1,1.587586658E-2,2.770171040E-1,3.087386109E-1
1.603411704E1,-3.820239517E-2,3.678466922E-2,-3.431403422E-1,3.472143853E-1
1.604407904E1,9.701317401E-2,1.171690654E-2,2.659079790E-2,1.012714785E-1