"Time (s)","Linear Acceleration x (m/s^2)","Linear Acceleration y (m/s^2)","Linear Acceleration z (m/s^2)","Absolute acceleration (m/s^2)"
-2.652916592E-4,7.724338614E-3,-7.904266119E-3,-1.923112683E-1,1.926285720E-1
9.696708294E-3,2.183656618E-2,-4.328869164E-2,-5.672566630E-2,7.462270207E-2
1.965870825E-2,3.619972381E-3,-4.063171685E-2,9.409624480E-2,1.025580026E-1
2.962070832E-2,-1.355871095E-3,-2.546579361E-2,1.656609750E-1,1.676123613E-1
3.958270827E-2,1.988146969E-3,1.878534973E-2,1.117860456E-1,1.133709049E-1
4.954570835E-2,-1.287055990E-2,2.385079265E-2,1.003919419E-1,1.039858337E-1
5.950770830E-2,-1.463344974E-2,1.097931683E-2,1.355758810E-1,1.368046153E-1
6.946970825E-2,2.582791442E-2,-9.942605495E-3,9.617324889E-2,1.000761229E-1
7.943170832E-2,2.821305078E-2,9.073709249E-3,-3.890254900E-2,4.890518124E-2
8.939370827E-2,1.887065512E-2,2.010155797E-2,-1.150387055E-1,1.182965681E-1
9.935570834E-2,-7.261488098E-3,1.518463433E-2,-6.673193336E-2,6.882189520E-2
1.093177083E-1,6.900477349E-3,4.114451766E-2,-5.145257413E-2,6.624088848E-2
1.192797082E-1,2.164131029E-2,3.928334892E-2,-3.576274037E-2,5.736289229E-2
1.292417083E-1,4.626783888E-2,5.076260269E-2,-2.384202182E-2,7.270486057E-2
1.392037083E-1,5.050860512E-2,1.913442850E-2,2.277899802E-2,5.861849790E-2
1.491667083E-1,4.995163956E-2,-1.208268642E-2,8.145580709E-2,9.631306305E-2
1.591287083E-1,4.817209429E-2,-3.690762520E-3,8.966412842E-2,1.018519922E-1
1.690907083E-1,4.226042679E-2,-9.680650234E-3,-2.160984725E-3,4.340885297E-2
1.790527083E-1,6.507368127E-2,1.105533063E-2,-7.635542706E-2,1.009304492E-1
1.890147083E-1,7.922305693E-2,-1.086295724E-2,-1.924603723E-1,2.084113516E-1
1.989767083E-1,7.520667759E-2,-2.075995445E-2,-2.192694175E-1,2.327361113E-1
2.089387083E-1,1.235025684E-1,-9.827415347E-3,-1.801537375E-1,2.186431605E-1
2.189007082E-1,1.089678338E-1,2.468694448E-3,-1.786412090E-1,2.092672091E-1
2.288627083E-1,-2.040090343E-2,-7.817727327E-4,-5.813718416E-2,6.161769398E-2
2.388247083E-1,2.395898898E-3,-1.535771191E-2,7.051902875E-2,7.221172386E-2
2.487877083E-1,1.916494594E-2,9.073124528E-3,8.578859389E-2,8.837024150E-2
2.587497083E-1,2.046059528E-2,1.487940967E-2,1.072483139E-1,1.101918038E-1
2.687117083E-1,8.058098140E-2,2.002495944E-2,7.322753213E-2,1.107093719E-1
2.786737083E-1,2.015777712E-1,4.782437682E-3,-6.644732013E-2,2.123010031E-1
2.886357083E-1,8.290736010E-2,1.270599961E-2,-2.012267373E-1,2.180075058E-1
2.985977083E-1,7.565079189E-2,2.133941352E-2,-1.418541095E-1,1.621758344E-1
3.085597083E-1,-5.100909024E-2,1.265454412E-2,3.142637216E-2,6.123464412E-2
3.185217083E-1,-7.956691889E-2,1.039810359E-2,9.679773152E-2,1.257331140E-1
3.284837083E-1,-1.519339145E-1,1.662304938E-2,1.022233629E-1,1.838745661E-1
3.384457083E-1,-2.030607165E-1,3.163343668E-4,1.552429178E-1,2.556053954E-1
3.484087083E-1,-2.014125143E-1,-6.386913657E-3,2.099811155E-1,2.910324079E-1
3.583707083E-1,-1.330972646E-1,-3.388461471E-3,2.280957896E-1,2.641099254E-1
3.683327083E-1,-5.533754644E-2,2.246500254E-2,2.059646630E-1,2.144489748E-1
3.782947083E-1,-1.597404727E-2,-4.343311787E-3,1.261631794E-1,1.272445770E-1
3.882567083E-1,-7.193856826E-3,-3.193339884E-2,5.742389694E-2,6.609839240E-2
3.982187083E-1,3.614361567E-2,-1.457418501E-2,-2.932027817E-2,4.876931960E-2
4.081807083E-1,4.009332990E-2,-3.394893408E-3,-8.968985617E-2,9.830193642E-2
4.181427083E-1,7.724847961E-3,5.777049065E-3,-5.061817646E-2,5.152909237E-2
4.281047083E-1,-6.177634500E-2,1.012737751E-3,8.156047225E-2,1.023203454E-1
4.380667083E-1,-6.696277047E-2,5.116898417E-3,1.821922231E-1,1.941756973E-1
4.480287083E-1,-3.415205630E-2,7.480342984E-3,2.897540208E-1,2.918556339E-1
4.579917083E-1,1.123637048E-2,1.775507033E-2,3.090538524E-1,3.097673034E-1
4.679537083E-1,4.319716444E-2,2.550321579E-2,2.544328183E-1,2.593308082E-1
4.779157083E-1,4.542614132E-2,1.078285038E-2,2.004068115E-1,2.057734051E-1
4.878777083E-1,2.874938892E-2,1.313460052E-2,1.250988400E-1,1.290300929E-1
4.978397083E-1,1.809661396E-2,2.999621630E-4,5.786521554E-2,6.062970051E-2
5.078017083E-1,7.718731225E-3,4.690051675E-3,-2.036760628E-2,2.228036764E-2
5.177637083E-1,4.064947320E-2,1.260952055E-2,-1.046745157E-1,1.129961677E-1
5.277257083E-1,1.724315345E-2,-2.349411249E-3,-1.655498779E-1,1.664620321E-1
5.376877083E-1,-2.322198627E-2,-3.411265612E-3,-7.207636155E-2,7.580171023E-2
5.476507082E-1,-1.033329543E-2,-4.876577854E-3,4.705985337E-3,1.235735830E-2
5.576127083E-1,-1.645493279E-3,7.641141415E-3,-6.107811436E-2,6.157621898E-2
5.675743750E-1,-5.081184721E-3,1.194001436E-3,-1.033977762E-2,1.158253335E-2
5.775363749E-1,-1.956314361E-2,-2.292517841E-2,3.718361378E-2,4.786336309E-2
5.874983750E-1,-2.215838231E-2,-2.385430098E-2,2.448287666E-2,4.073613668E-2
5.974603749E-1,1.637211018E-2,5.370199800E-2,-6.166948713E-2,8.339709961E-2
6.074223750E-1,7.694431019E-3,-5.128826737E-2,-7.883808173E-2,9.436701633E-2
6.173843750E-1,4.231892179E-2,7.524080157E-2,-9.446359612E-2,1.279665595E-1
6.273463749E-1,2.423943377E-2,-8.725215197E-3,-1.029911023E-1,1.061642439E-1
6.373083750E-1,4.418937298E-2,4.029374778E-2,-5.843590379E-2,8.361244911E-2
6.472703749E-1,1.739802929E-2,-1.501331091E-2,1.509926498E-2,2.749688583E-2
6.572333750E-1,4.483476855E-2,3.291514635E-2,9.279823601E-2,1.081899992E-1
6.671953750E-1,7.645054024E-3,1.575883090E-2,1.477041757E-1,1.487390706E-1
6.771573749E-1,2.776308241E-2,7.164593339E-3,8.281309202E-2,8.763634151E-2
6.871193750E-1,3.047613337E-2,2.186975598E-2,3.436752163E-2,5.087442850E-2
6.970813749E-1,1.507572765E-2,-2.049273670E-2,5.103669092E-2,5.702607861E-2
7.070433750E-1,1.236056393E-2,8.565410793E-2,3.791919351E-3,8.662440994E-2
7.170053750E-1,-2.982558038E-2,2.035415769E-3,2.916518077E-3,3.003688133E-2
7.269673749E-1,-2.989286219E-3,-2.719423056E-2,5.204021931E-3,2.784858797E-2
7.369293750E-1,-6.599857374E-3,-9.721112967E-2,-3.851451315E-2,1.047708431E-1
7.468913749E-1,2.801932750E-2,2.307428241E-2,-1.707562387E-2,4.011336626E-2
7.568543750E-1,-1.856414682E-2,2.465946257E-2,5.059237562E-2,5.926470377E-2
7.668163750E-1,-1.748865428E-2,2.899283409E-2,1.633750791E-1,1.668467978E-1
7.767783749E-1,-2.936011689E-2,-5.840257466E-2,1.494758821E-1,1.631438522E-1
7.867403750E-1,2.664721211E-2,-1.983667910E-2,6.033215582E-2,6.887333865E-2
7.967023749E-1,3.609820838E-2,1.465312243E-2,4.316750810E-2,5.814833102E-2
8.066643750E-1,1.704347789E-2,5.016852558E-2,3.578013584E-2,6.393417879E-2
8.166263750E-1,2.383190568E-2,2.504303992E-2,2.718955278E-2,4.398164796E-2
8.265883749E-1,2.513231959E-2,4.946159720E-3,7.959573470E-2,8.361566221E-2
8.365503750E-1,5.525838062E-2,1.222009599E-2,2.606096707E-2,6.230564485E-2
8.465133749E-1,4.275007172E-2,2.868117750E-2,-4.935459316E-2,7.131657900E-2
8.564753750E-1,1.239566321E-2,4.036332965E-2,-1.662363410E-3,4.225652966E-2
8.664373750E-1,1.387073756E-3,-4.997030497E-3,8.260873184E-3,9.753784555E-3
8.763993749E-1,-4.956805764E-3,4.741448700E-2,-3.156743623E-2,5.717697554E-2
8.863613750E-1,-8.932444174E-4,-1.449466288E-2,-2.309489384E-2,2.728126205E-2
8.963233749E-1,1.271136717E-3,2.991727889E-2,-2.800297357E-2,4.099787669E-2
9.062853750E-1,-1.040641304E-2,-1.289778829E-2,-4.077263474E-3,1.706664737E-2
9.162473750E-1,2.584747061E-2,4.960777760E-3,-3.266371608E-2,4.194781760E-2
9.262093749E-1,-7.962694878E-3,-4.781911433E-2,1.600543723E-2,5.105140767E-2
9.361713750E-1,-3.183503771E-2,1.496887207E-4,5.982227862E-2,6.776575132E-2
9.461343749E-1,2.060407591E-2,4.338634014E-4,1.446216698E-1,1.460826600E-1
9.560963750E-1,5.722096658E-3,3.115981221E-2,9.521898329E-2,1.003510392E-1
9.660583750E-1,2.264054006E-2,3.111303449E-3,1.168693956E-1,1.190828698E-1
9.760203749E-1,5.551510993E-3,-5.326813459E-3,1.845673621E-1,1.847276518E-1
9.859823750E-1,2.615765855E-2,-9.421618581E-3,1.538807358E-1,1.563722189E-1
9.959443749E-1,2.877477178E-2,3.598142624E-2,2.171612039E-2,5.093368640E-2
1.005906375E0,3.386895970E-2,7.940518856E-3,-3.484297335E-2,4.923607481E-2
1.015868375E0,1.078890773E-2,3.867933154E-3,-9.658430815E-3,1.498821947E-2
1.025830375E0,1.291182846E-2,-7.669792771E-3,2.377828717E-2,2.812379733E-2
1.035792375E0,5.538096658E-3,3.559200168E-3,-2.117496058E-2,2.217470126E-2
1.045754375E0,1.196543376E-2,1.707620859E-2,-9.011728764E-3,2.271518788E-2
1.055717375E0,-2.419420921E-2,1.327201009E-2,3.182654098E-2,4.212403971E-2
1.065679375E0,-5.749500456E-2,6.793879867E-3,2.730181932E-2,6.400954376E-2
1.075641375E0,5.355144133E-2,-1.384094417E-2,-5.908092476E-2,8.093135533E-2
1.085603375E0,-1.070680369E-1,-2.425074220E-2,-1.832385823E-2,1.112988176E-1
1.095565375E0,-1.137463886E-3,6.306806803E-3,-4.271456815E-2,4.319263790E-2
1.105527375E0,-6.046078086E-3,2.326373219E-2,2.401509941E-2,3.397765877E-2
1.115489375E0,4.591484978E-3,1.108164310E-2,-6.703496531E-2,6.809971455E-2
1.125451375E0,3.955705800E-2,-6.696816087E-3,-8.124128737E-2,9.060769810E-2
1.135413375E0,2.692636641E-2,-1.579508364E-2,5.081405818E-2,5.963708900E-2
1.145375375E0,2.277958274E-2,1.695517123E-2,1.223886555E-1,1.256398433E-1
1.155338375E0,3.754722836E-2,2.221883476E-2,7.763289750E-2,8.905244382E-2
1.165300375E0,3.887133949E-2,2.435774624E-2,-7.671254575E-2,8.938174037E-2
1.175262375E0,9.031045589E-2,1.062146723E-2,-2.576768535E-1,2.732510839E-1
1.185224375E0,1.266943396E-2,-8.817016482E-3,-1.526346210E-1,1.534131086E-1
1.195186375E0,1.683819951E-2,-2.824205160E-3,-1.645587748E-1,1.654421091E-1
1.205148375E0,2.686667456E-2,9.108207822E-3,-6.665248431E-2,7.243846573E-2
1.215110375E0,-7.273502299E-3,2.456415296E-2,-3.534466445E-2,4.365256867E-2
1.225072375E0,1.354413402E-2,-6.692138314E-3,6.282263115E-2,6.461355327E-2
1.235034375E0,-1.691304843E-3,-1.194586158E-3,1.149286316E-1,1.149472832E-1
1.244996375E0,8.886739961E-3,4.474874139E-3,1.195613806E-1,1.199746739E-1
1.254959375E0,-1.918550484E-2,8.993017673E-3,9.117285624E-2,9.360260508E-2
1.264921375E0,-1.346562830E-2,6.448894143E-3,5.299346164E-2,5.505650150E-2
1.274883375E0,7.706516027E-3,1.571790040E-2,1.492911100E-2,2.300698019E-2
1.284845375E0,1.120919920E-2,2.081082523E-2,1.041403726E-2,2.582999739E-2
1.294807375E0,1.580853224E-2,2.306258798E-2,2.846775413E-2,3.990245206E-2
1.304769375E0,2.226581348E-2,3.146971464E-3,5.203554153E-2,5.668657215E-2
1.314731375E0,1.262791644E-2,2.823035717E-3,3.579431534E-2,3.806135593E-2
1.324693375E0,3.191365535E-2,1.341000438E-2,1.641386524E-2,3.831089385E-2
1.334655375E0,1.435464034E-2,8.123536706E-3,2.911613725E-2,3.346336798E-2
1.344617375E0,1.258275355E-2,6.233716607E-3,6.350251615E-2,6.503656254E-2
1.354580375E0,1.662107594E-3,1.581730306E-2,6.814184323E-2,6.997328402E-2
1.364542375E0,-7.860000869E-3,-3.964996934E-3,3.381386340E-2,3.494106713E-2
1.374504375E0,6.404208625E-3,7.083317041E-3,1.226511955E-2,1.554414443E-2
1.384466375E0,6.335908121E-3,1.082319617E-3,5.985209942E-3,8.782817630E-3
1.394428375E0,5.588410122E-3,1.917185068E-2,4.620703697E-2,5.033766435E-2
1.404390375E0,2.746320704E-2,6.583964825E-3,8.351505026E-3,2.945036452E-2
1.414352375E0,2.332906798E-2,-8.825787306E-3,-3.493638262E-2,4.292657411E-2
1.424314375E0,1.251109775E-2,4.917508364E-4,-9.943848029E-3,1.598904311E-2
1.434276375E0,-7.303882695E-3,3.526514232E-2,2.245498918E-2,4.244058794E-2
1.444238375E0,1.288159424E-2,1.603481948E-2,-5.458083451E-2,5.832768126E-2
1.454201375E0,-1.067988229E-2,2.301522553E-2,-1.320476711E-2,2.860290835E-2
1.464163375E0,1.082820057E-2,1.787084520E-2,2.308904663E-2,3.114034537E-2
1.474125375E0,3.457808078E-2,3.708304167E-3,5.657648921E-2,6.641004684E-2
1.484087375E0,4.543875852E-3,-1.947532117E-2,6.693439320E-2,6.985805562E-2
1.494049375E0,3.149639028E-2,-8.381983638E-3,-2.245330811E-4,3.259341445E-2
1.504011375E0,1.938626305E-2,-1.221600294E-2,-2.780541077E-2,3.603052583E-2
1.513973375E0,2.106608360E-2,-1.525597036E-2,-3.591067493E-2,4.434073842E-2
1.523935375E0,2.693036810E-2,-8.491911292E-3,-6.206950977E-2,6.819077157E-2
1.533897375E0,2.590976858E-2,-1.987410128E-2,-9.755151071E-2,1.028717320E-1
1.543859375E0,-1.204704582E-3,-9.215211868E-4,-5.191106893E-2,5.193322243E-2
1.553821375E0,1.186274432E-3,-2.125521362E-2,-4.339518405E-2,4.833563232E-2
1.563783708E0,1.425551176E-2,4.266713262E-3,-5.885339499E-2,6.070540799E-2
1.573745708E0,1.179300485E-2,8.402448893E-3,5.615008101E-3,1.553075745E-2
1.583707708E0,-1.238051984E-2,3.672519207E-2,1.034477699E-1,1.104692631E-1
1.593669708E0,-1.267552557E-2,2.406889379E-2,1.228606720E-1,1.258361050E-1
1.603631708E0,-7.284260262E-4,3.782212973E-2,7.270135581E-2,8.195444612E-2
1.613593708E0,4.040122235E-3,2.904545903E-2,6.007502452E-2,6.685035414E-2
1.623555708E0,-6.665261679E-3,2.858235955E-2,1.122981155E-1,1.160699950E-1
1.633517708E0,1.842878834E-2,1.682653248E-2,5.765230380E-2,6.282149766E-2
1.643479708E0,1.230262853E-2,1.597050011E-2,1.537466884E-2,2.535334267E-2
1.653441708E0,1.153422673E-3,-3.339286387E-2,4.144331038E-2,5.323496705E-2
1.663404708E0,3.876139356E-2,7.023675442E-2,2.204868078E-2,8.319730540E-2
1.673366708E0,2.142712176E-3,-8.672005534E-2,5.753221661E-3,8.693709665E-2
1.683328708E0,4.725126746E-2,1.305098534E-2,8.352162838E-3,4.972694560E-2
1.693290708E0,1.781820199E-2,-2.158441186E-2,6.482223272E-3,2.872967761E-2
1.703252708E0,4.706645890E-2,3.153111041E-2,1.732895449E-2,5.924318645E-2
1.713214708E0,1.717213491E-2,-1.861402631E-2,1.477196708E-2,2.931851299E-2
1.723176708E0,9.202754558E-3,-2.220597088E-2,1.655288279E-2,2.918550604E-2
1.733138708E0,-5.858572042E-3,-2.800757825E-2,-2.150255084E-2,3.579255507E-2
1.743100708E0,9.595036490E-3,7.579745650E-3,-9.273099303E-2,9.353370696E-2
1.753062708E0,6.344356891E-3,3.610363305E-2,-1.236119661E-1,1.289327009E-1
1.763025708E0,-1.372603268E-2,1.316325188E-2,1.229727924E-2,2.264725700E-2
1.772987708E0,-9.355439977E-3,3.701930702E-2,7.089880541E-2,8.052697658E-2
1.782949708E0,2.790112238E-2,2.822450995E-2,-1.688383520E-2,4.312956623E-2
1.792911708E0,1.410281264E-2,3.439741552E-2,1.181196034E-2,3.900761369E-2
1.802873708E0,-4.945504193E-3,1.983141661E-2,1.174479045E-1,1.192130587E-1
1.812835708E0,2.598531872E-2,4.247358978E-2,5.826808870E-2,7.664471788E-2
1.822797708E0,1.929808430E-2,-2.215626955E-2,-2.812861562E-2,4.067598007E-2
1.832759708E0,1.427664625E-2,-1.312115192E-3,2.826427102E-2,3.169248003E-2
1.842721708E0,1.452688195E-3,-2.581955016E-2,5.543818250E-2,6.117312770E-2
1.852683708E0,3.699191418E-2,1.150732040E-2,1.706860721E-2,4.233388111E-2
1.862645708E0,5.564893351E-3,6.939475536E-3,1.791396841E-2,2.000086556E-2
1.872608708E0,5.192569611E-3,-2.878701210E-2,9.096389137E-2,9.555147502E-2
1.882570708E0,2.311407774E-2,-1.202479899E-2,1.128459996E-1,1.158148350E-1
1.892532708E0,-1.223791630E-2,-2.370461226E-3,1.053042608E-1,1.060394881E-1
1.902494708E0,-1.668836689E-2,3.701755285E-2,3.762800217E-2,5.535943782E-2
1.912456708E0,-7.477396536E-3,1.460809886E-2,-2.681766987E-2,3.144034714E-2
1.922418708E0,-5.953644114E-3,1.675461173E-2,3.036261745E-2,3.518595502E-2
1.932380708E0,-6.313366648E-3,3.725845814E-3,6.112328410E-2,6.156132215E-2
1.942342708E0,2.088705830E-2,2.196565032E-2,-3.309377879E-3,3.049116233E-2
1.952304708E0,2.095082493E-3,4.561705291E-2,-4.595136747E-2,6.478296890E-2
1.962267708E0,6.271214162E-3,3.546277821E-2,-1.246904120E-2,3.811054649E-2
1.972229708E0,2.553655406E-2,3.296484768E-2,-3.981369138E-2,5.765350637E-2
1.982191708E0,1.865130459E-2,1.883914411E-2,-3.631245174E-2,4.495974494E-2
1.992153708E0,1.206040990E-2,5.179463625E-3,-1.051862933E-2,1.682028220E-2
2.002115708E0,-4.754243139E-4,5.315703750E-3,-1.159678280E-2,1.276589621E-2
2.012077708E0,2.286672681E-2,7.711308002E-3,1.938702822E-2,3.095494030E-2
2.022039708E0,1.658209146E-2,-7.192075253E-4,1.065017706E-1,1.077873377E-1
2.032001708E0,2.027091252E-2,-1.716508627E-2,1.118823785E-1,1.149922462E-1
2.041963708E0,1.424607627E-2,-2.317076147E-2,5.685006581E-2,6.302193951E-2
2.051925708E0,6.618191593E-3,-6.760550737E-3,4.721392751E-2,4.815247093E-2
2.061887708E0,-9.860536626E-3,6.311484575E-3,6.659445070E-2,6.761572216E-2
2.071850708E0,-1.620476104E-2,5.881129503E-3,5.527562991E-2,5.790144408E-2
2.081812708E0,-1.732388842E-2,7.958060503E-4,3.870951779E-2,4.241670880E-2
2.091774708E0,6.682846723E-3,8.861455321E-3,2.176158249E-2,2.442851415E-2
2.101736708E0,-1.950747629E-3,2.545176029E-2,3.288284048E-2,4.162785986E-2
2.111698708E0,4.775128663E-3,2.642941475E-2,2.571430027E-2,3.718253698E-2
2.121660708E0,1.658667559E-2,4.358689964E-2,-2.571437337E-2,5.325565345E-2
2.131622708E0,1.355877719E-2,1.662363410E-2,-4.276536584E-2,4.784414452E-2
2.141584708E0,3.383998172E-2,2.220246255E-2,-6.965495646E-2,8.055995696E-2
2.151546708E0,3.453884962E-2,1.645991206E-3,-6.897032060E-2,7.715274812E-2
2.161508708E0,1.905478074E-2,1.901163697E-2,-5.769761972E-2,6.366743541E-2
2.171471708E0,1.387794608E-2,2.151190639E-3,-5.723386243E-2,5.893165548E-2
2.181433708E0,1.995428351E-2,-2.512548566E-3,-6.808739103E-2,7.099562767E-2
2.191395708E0,1.784868516E-2,3.496634960E-4,-8.384395614E-3,1.972297940E-2
2.201357708E0,1.050806094E-2,-4.594742060E-3,6.665526174E-2,6.763471680E-2
2.211319708E0,1.146644928E-2,-3.293736577E-3,8.999376521E-2,9.078108798E-2
2.221281708E0,1.195132735E-2,-4.302381277E-3,8.610492826E-2,8.703679325E-2
2.231243708E0,-8.162925469E-3,-4.887687564E-3,4.878083512E-2,4.970002734E-2
2.241205708E0,-1.193434074E-2,-2.361514986E-2,7.027534604E-2,7.509146458E-2
2.251167708E0,-3.878740910E-2,-8.657329023E-2,9.845183574E-2,1.367192804E-1
2.261129708E0,1.571060280E-2,-5.779914200E-2,2.496227525E-2,6.488974528E-2
2.271091708E0,4.579074263E-2,7.040106118E-2,-1.542056948E-3,8.399690152E-2
2.281054708E0,3.307203446E-3,1.323148888E-1,3.847160921E-2,1.378340746E-1
2.291016708E0,-1.567501701E-2,1.052884734E-1,7.021029577E-2,1.275180552E-1
2.300978708E0,-3.224705171E-3,-2.700828910E-2,2.089546368E-2,3.429966189E-2
2.310940708E0,4.201067302E-2,-6.664305568E-2,-4.986037731E-2,9.323224090E-2
2.320902708E0,4.205597067E-2,-3.992712736E-2,-7.728133366E-2,9.661927706E-2
2.330864708E0,1.660634827E-2,-2.602537215E-2,-1.106597257E-1,1.148854459E-1
2.340826708E0,5.026092986E-3,-1.247152627E-2,-1.028015064E-1,1.036771445E-1
2.350788708E0,4.207693842E-2,8.740125597E-2,-9.052308440E-2,1.326796032E-1
2.360750708E0,4.606135908E-2,1.578666365E-1,-3.682517946E-2,1.685218608E-1
2.370712708E0,-2.370474702E-2,3.672519207E-2,9.251698494E-2,1.023232489E-1
2.380675708E0,-1.539972735E-2,-1.371914667E-1,1.086242368E-1,1.756640969E-1
2.390637708E0,8.842910968E-3,-1.708936483E-1,-2.678149022E-2,1.732053241E-1
2.400599708E0,1.242515054E-2,-3.660356998E-2,-9.133533575E-2,9.917837092E-2
2.410561708E0,-2.888690584E-2,6.480878413E-2,-2.244227149E-2,7.441967064E-2
2.420523708E0,-3.652117221E-2,1.026543027E-1,2.814615726E-2,1.125340307E-1
2.430485708E0,-2.738293117E-2,3.438338220E-2,2.952142239E-2,5.294861916E-2
2.440447708E0,1.510530177E-2,-2.403790355E-2,6.622497976E-2,7.205372227E-2
2.450409708E0,3.028037271E-2,-4.329746246E-2,9.058564961E-2,1.048681608E-1
2.460371708E0,1.262003184E-2,2.838180006E-2,6.744054280E-2,7.424970432E-2
2.470333708E0,-1.094052878E-2,6.166707516E-2,5.205483735E-2,8.143850084E-2
2.480296708E0,1.198650658E-2,4.131057858E-2,1.308314502E-2,4.496008148E-2
2.490258708E0,5.786020886E-3,-5.660514057E-2,1.532262862E-2,5.892709838E-2
2.500220708E0,3.879919946E-2,3.976399004E-2,2.860048592E-2,6.248632313E-2
2.510182708E0,2.688963402E-2,-8.795323312E-2,5.816810131E-3,9.215562335E-2
2.520144708E0,4.390957458E-2,2.678919393E-1,-3.572831489E-2,2.738076959E-1
2.530106708E0,-5.850410608E-2,-1.584899497E-1,3.122340068E-3,1.689720201E-1
2.540068708E0,3.535395605E-2,7.248734772E-2,-3.782096028E-2,8.907717342E-2
2.550030708E0,-1.116085917E-2,-9.347826719E-2,-1.366201937E-2,9.512834482E-2
2.559992708E0,-6.854658932E-3,2.902148545E-2,-1.165203899E-3,2.984276574E-2
2.569955458E0,-3.717320756E-2,-3.337707639E-2,1.792873263E-2,5.307839525E-2
2.579918458E0,-1.281759921E-2,2.800991714E-2,2.497228861E-2,3.965427475E-2
2.589880458E0,-3.159479024E-3,9.400100827E-2,3.835298382E-2,1.015732407E-1
2.599842458E0,-2.584048365E-2,1.208666253E-1,7.893733822E-2,1.466546115E-1
2.609804458E0,1.460968858E-2,2.592655420E-3,1.340463956E-1,1.348651216E-1
2.619766458E0,2.282604069E-2,-2.773392856E-2,3.355768226E-2,4.915604709E-2
2.629728458E0,4.145497740E-2,-7.529985845E-2,4.268467426E-3,8.606278899E-2
2.639690458E0,2.714204872E-2,1.621432900E-2,-5.140228808E-2,6.034724926E-2
2.649652458E0,1.313309303E-2,8.833213270E-2,-5.111577451E-2,1.028973576E-1
2.659614458E0,1.928468824E-3,6.902988911E-2,-8.993017673E-3,6.963992353E-2
2.669576458E0,1.093165745E-2,6.790956259E-3,-2.429401159E-2,2.749213016E-2
2.679538458E0,3.118577979E-2,-5.448435545E-2,-7.496020831E-2,9.777592076E-2
2.689501458E0,1.149315461E-2,-3.888515353E-2,-7.437950671E-2,8.471398224E-2
2.699463458E0,-7.808860573E-3,-2.576575577E-2,-5.049129188E-2,5.722082689E-2
2.709425458E0,6.275396291E-3,2.512840927E-2,3.265596852E-3,2.610520396E-2
2.719387458E0,-1.989434955E-2,4.908152819E-3,5.235699221E-2,5.622392500E-2
2.729349458E0,-7.629191168E-3,-7.261072397E-3,8.948578835E-2,9.010346301E-2
2.739311458E0,-8.619433127E-3,-4.132636607E-2,7.628745317E-2,8.718909721E-2
2.749273458E0,2.472246175E-3,-1.392105103E-2,4.996796608E-2,5.192981125E-2
2.759235458E0,4.058225763E-3,6.598348975E-2,1.898174308E-2,6.877933328E-2
2.769197458E0,-2.728153908E-2,5.292314887E-2,1.126466095E-2,6.059731551E-2
2.779159458E0,-5.099411588E-4,5.556550562E-2,1.911272071E-2,5.876292665E-2
2.789122458E0,1.575404350E-2,8.759129047E-4,2.099457398E-2,2.626269686E-2
2.799084458E0,3.573496838E-2,-4.884763956E-3,2.530090213E-2,4.405660601E-2
2.809046458E0,2.773937378E-2,1.373218596E-2,3.476571701E-2,4.654783420E-2
2.819008458E0,2.629907666E-2,1.348660290E-2,2.643343471E-2,3.965168800E-2
2.828970458E0,2.843368953E-2,3.569432795E-2,-6.299351603E-3,4.606779329E-2
2.838932458E0,2.983091825E-3,-3.324142098E-2,1.499445364E-2,3.658858491E-2
2.848894458E0,7.279861146E-3,-3.347647905E-2,2.333053663E-2,4.144858222E-2
2.858856458E0,1.532121249E-2,-1.768256485E-2,-1.457886279E-2,2.756729752E-2
2.868818458E0,2.921527040E-3,-1.367020547E-2,-3.944005430E-2,4.184408824E-2
2.878780458E0,-1.557464361E-2,1.314044774E-2,-3.975229561E-2,4.467086183E-2
2.888742458E0,-1.093514980E-2,3.936345577E-3,-3.407647647E-2,3.600386877E-2
2.898705458E0,-1.457732104E-2,-5.846046209E-3,-8.387830853E-3,1.780534334E-2
2.908667458E0,-1.779904779E-2,-3.072302520E-2,4.330447912E-3,3.576958427E-2
2.918629458E0,-1.335287069E-2,-6.099113703E-2,3.250130966E-2,7.038858630E-2
2.928591458E0,3.408773693E-3,2.585054040E-3,2.693402946E-2,2.727167368E-2
2.938553458E0,1.772752446E-2,3.215793192E-2,9.782318696E-3,3.800120351E-2
2.948515458E0,3.753494464E-3,6.004505754E-2,6.053505421E-2,8.534629718E-2
2.958477458E0,1.921712777E-2,1.420639515E-2,1.056328744E-1,1.083024645E-1
2.968439458E0,2.751223915E-2,1.802696586E-3,8.729892969E-2,9.154930990E-2
2.978401458E0,1.981736502E-2,-3.164513111E-3,4.444760978E-2,4.876814652E-2
2.988363458E0,1.138816968E-2,2.793097973E-2,-2.620722055E-3,3.027702465E-2
2.998326458E0,2.007457170E-2,2.700828910E-2,-4.174911976E-3,3.390967412E-2
3.008288458E0,2.221435798E-2,6.195709705E-3,1.668970764E-2,2.846771611E-2
3.018250458E0,2.325395638E-2,-1.702533782E-2,2.989856780E-2,4.152749657E-2
3.028212458E0,4.080221800E-2,-1.732880831E-2,-8.527652398E-3,4.514232434E-2
3.038174458E0,5.712533263E-3,-6.503857970E-3,-3.564696550E-2,3.668295727E-2
3.048136458E0,-1.636563713E-2,-5.657181144E-3,-7.420452878E-2,7.619809623E-2
3.058098458E0,-1.778346130E-2,-4.259696603E-3,-1.245537333E-1,1.258889550E-1
3.068060458E0,-2.111652269E-2,2.330115438E-3,-7.894135818E-2,8.175007645E-2
3.078022458E0,-2.478967961E-2,-6.604430079E-3,-3.286018252E-2,4.168858725E-2
3.087984458E0,-1.973424776E-2,1.755509555E-2,1.835309431E-2,3.216299093E-2
3.097947458E0,-2.059884310E-2,4.841494560E-3,8.023432374E-2,8.297770250E-2
3.107909458E0,3.094415959E-2,2.006939828E-2,4.562582374E-2,5.866888061E-2
3.117871458E0,2.633688256E-2,1.233177781E-2,7.390939057E-2,7.942482069E-2
3.127833458E0,2.259289667E-2,1.334393084E-2,1.263542372E-1,1.290499621E-1
3.137795458E0,3.489212194E-2,1.186984777E-2,1.005153912E-1,1.070593169E-1
3.147757458E0,2.635687501E-2,1.821992397E-3,5.653438926E-2,6.240305830E-2
3.157719458E0,2.383014010E-2,1.419353127E-2,1.738801137E-2,3.273644523E-2
3.167681458E0,2.445667382E-2,1.296210766E-2,-5.330175608E-3,2.818786798E-2
3.177643458E0,2.364696465E-2,2.778713822E-2,-4.057039417E-2,5.456428201E-2
3.187605458E0,1.172693817E-2,1.914846182E-2,-4.789161980E-2,5.289415767E-2
3.197568458E0,2.795508122E-3,-1.837779880E-3,-4.565389037E-2,4.577630399E-2
3.207530458E0,-6.668155594E-4,-6.447724700E-3,-3.937456548E-2,3.990456370E-2
3.217492458E0,-1.425376445E-2,-1.714871407E-2,-9.457871318E-3,2.422188112E-2
3.227454458E0,-5.039342868E-3,-2.616804421E-2,-4.664206982E-2,5.371819237E-2
3.237416458E0,3.784132961E-3,-2.418349922E-2,-7.247572638E-2,7.649766147E-2
3.247378458E0,-1.616139571E-2,-3.368288577E-2,-2.763394117E-3,3.746149826E-2
3.257340458E0,7.073175777E-3,-1.432275474E-2,6.874739550E-2,7.057886020E-2
3.267302458E0,2.164767142E-3,2.445364058E-2,5.462286137E-2,5.988592271E-2
3.277264458E0,1.230758267E-2,6.228571057E-2,7.088930368E-2,9.516448765E-2
3.287226458E0,3.317196017E-2,2.265913010E-2,8.635752797E-2,9.524409565E-2
3.297189458E0,3.152750615E-2,-2.075644612E-2,6.500342332E-2,7.516820300E-2
3.307151458E0,3.371337123E-2,-2.769942999E-2,2.934476338E-2,5.258293411E-2
3.317113458E0,2.118121665E-2,1.086529613E-2,-2.160897017E-2,3.215036843E-2
3.327075458E0,2.705570408E-2,1.161257029E-2,-6.635054871E-2,7.258965647E-2
3.337037458E0,1.502525887E-2,-1.165525496E-2,-5.878973342E-2,6.178864077E-2
3.346999458E0,1.926319515E-2,-1.344801128E-2,-7.436781228E-2,7.799032759E-2
3.356961458E0,3.512607909E-2,3.736487746E-2,-4.223078415E-2,6.643353543E-2
3.366923458E0,1.164330014E-2,3.476345122E-2,3.007573843E-2,4.741955315E-2
3.376885458E0,5.425398429E-3,9.536808729E-3,5.006400660E-2,5.125222361E-2
3.386847458E0,9.458241337E-3,-1.766034544E-2,3.721825853E-2,4.226753953E-2
3.396810458E0,3.809424452E-3,6.444801092E-3,4.557919219E-2,4.618993328E-2
3.406772458E0,-1.121754519E-2,3.888924658E-2,4.897393942E-2,6.353466426E-2
3.416734458E0,-8.267985773E-3,3.433485031E-2,3.510653660E-2,4.979669112E-2
3.426696458E0,2.229068242E-4,1.195814073E-2,1.161373973E-2,1.667110577E-2
3.436658458E0,1.942014264E-2,2.669838667E-2,1.286840603E-2,3.543362336E-2
3.446620458E0,6.880889176E-3,1.688851297E-2,3.643560871E-2,4.074459582E-2
3.456582458E0,3.509142520E-3,2.019335926E-2,8.930861771E-2,9.163031724E-2
3.466544458E0,1.656959304E-3,2.735561371E-2,1.692359626E-2,3.220998643E-2
3.476506458E0,3.768854826E-3,3.154222012E-2,-1.146507427E-2,3.377223482E-2
3.486468458E0,1.354893513E-3,7.891986966E-3,-8.934618607E-3,1.199777498E-2
3.496431458E0,2.817620419E-2,1.073607266E-2,-5.642416924E-3,3.067570060E-2
3.506393458E0,1.384255901E-2,8.931621909E-3,2.346136808E-2,2.866750952E-2
3.516355458E0,-3.302726671E-3,-4.861375093E-3,2.921268940E-2,2.979802331E-2
3.526317458E0,1.466825895E-2,2.176626027E-2,-2.510282770E-3,2.636720361E-2
3.536279458E0,2.192171854E-2,3.239532888E-2,-2.707991749E-4,3.911639566E-2
3.546241458E0,-4.263195796E-3,1.594184875E-2,9.490031004E-3,1.903623042E-2
3.556203458E0,-9.530506984E-3,-1.758433163E-2,-2.800816298E-4,2.000294298E-2
3.566166250E0,2.614178884E-2,-1.351934731E-2,-2.611249566E-2,3.934499085E-2
3.576128250E0,8.555977133E-3,2.521904111E-3,2.678075932E-2,2.822718220E-2
3.586090250E0,4.406767781E-3,1.599038064E-2,3.878326580E-2,4.218119938E-2
3.596052250E0,-9.547463909E-3,3.213805139E-2,4.828045964E-3,3.387208943E-2
3.606015250E0,-1.314394921E-2,2.121019006E-2,-1.118002251E-2,2.734279551E-2
3.615977250E0,-1.937187114E-3,-1.350122094E-2,1.052089512E-2,1.722570449E-2
3.625939250E0,3.872546973E-3,-1.046827018E-2,1.193526350E-2,1.634110815E-2
3.635901250E0,1.574729864E-2,-1.698557675E-2,-2.660015345E-2,3.527116946E-2
3.645863250E0,2.341189744E-2,-1.314804912E-2,1.058930755E-3,2.687209467E-2
3.655825250E0,1.806524685E-2,7.321298718E-3,4.368060127E-2,4.783251494E-2
3.665787250E0,2.628131802E-2,1.594945014E-2,2.658195399E-2,4.064102502E-2
3.675749250E0,3.717050094E-2,7.360475063E-3,-6.501519084E-3,3.844596837E-2
3.685711250E0,2.593916683E-2,-4.088957906E-3,4.169006288E-2,4.927089704E-2
3.695673250E0,2.677272168E-2,-1.641313434E-3,5.136077285E-2,5.794308866E-2
3.705636250E0,1.166027306E-2,1.797726452E-2,3.076322481E-2,3.749026551E-2
3.715598250E0,4.906407790E-4,2.496059418E-2,4.458443463E-2,5.109837376E-2
3.725560250E0,6.005501607E-3,2.921678245E-2,3.148776792E-2,4.337241007E-2
3.735522250E0,-7.437308847E-3,2.805727959E-2,4.065386318E-2,4.995258844E-2
3.745484250E0,1.420122402E-2,9.219889641E-3,2.496929191E-2,3.016863714E-2
3.755446250E0,1.591274515E-2,1.644003153E-2,-2.690245450E-2,3.531617410E-2
3.765408250E0,1.358447524E-3,1.175114930E-2,-2.808183789E-2,3.047170013E-2
3.775370250E0,1.425708092E-2,1.293637991E-2,-2.241362013E-2,2.954631362E-2
3.785332250E0,1.984580167E-2,-1.889235377E-3,-3.189656138E-3,2.018908023E-2
3.795294250E0,8.872270386E-3,6.651207805E-3,2.322353259E-2,2.573496091E-2
3.805256250E0,2.722283166E-3,-1.219670713E-2,1.126341842E-2,1.682364660E-2
3.815219250E0,2.186372147E-3,-1.248965263E-3,1.794802845E-2,1.812379272E-2
3.825181250E0,2.412847144E-2,-1.005779564E-2,4.698237777E-3,2.655966538E-2
3.835143250E0,2.524393974E-2,3.149310350E-3,1.094942294E-2,2.769592952E-2
3.845105250E0,1.179686265E-2,-1.251479566E-2,2.191536427E-3,1.733750013E-2
3.855067250E0,1.732498021E-2,4.157370329E-3,7.481439337E-3,1.932383507E-2
3.865029250E0,1.322087664E-2,3.250934958E-2,1.677441917E-2,3.889769310E-2
3.874991250E0,5.250696873E-3,2.132011771E-2,3.841313705E-2,4.424574934E-2
3.884953250E0,6.100808938E-3,2.491790950E-2,1.366845131E-2,2.906800036E-2
3.894915250E0,4.758297361E-3,1.892451346E-2,8.633925542E-3,2.133830531E-2
3.904877250E0,7.918589513E-3,2.713400424E-2,1.110912502E-2,3.037055983E-2
3.914840250E0,2.742092893E-3,3.892959237E-2,-1.165174663E-2,4.072831245E-2
3.924802250E0,1.936602392E-3,1.374621928E-2,2.641187310E-2,2.983782857E-2
3.934764250E0,6.987948040E-4,-1.884557605E-3,4.978100136E-2,4.982156127E-2
3.944726250E0,1.783538960E-2,-4.509957433E-3,4.382137299E-2,4.752634605E-2
3.954688250E0,1.698409896E-2,-1.178447843E-2,3.915354073E-2,4.427565133E-2
3.964650250E0,-8.973406660E-3,-8.726969361E-3,4.511711597E-3,1.330554632E-2
3.974612250E0,6.196230473E-3,-2.285968959E-2,-1.689085186E-2,2.909054068E-2
3.984574250E0,1.411531335E-2,-1.749136090E-2,-1.668970764E-2,2.799528743E-2
3.994536250E0,2.679901360E-2,-6.567007899E-3,-1.022853434E-2,2.942678435E-2
4.004498250E0,1.757395968E-2,4.838220119E-2,-2.727126762E-2,5.825292687E-2
4.014461250E0,4.983051997E-3,1.048282975E-1,2.946879745E-2,1.090055631E-1
4.024423250E0,6.920028976E-3,9.895301521E-2,1.039301652E-1,1.436699873E-1
4.034385250E0,1.214138242E-2,-4.311152101E-3,1.304905576E-1,1.311250732E-1
4.044347250E0,3.214307634E-2,-5.302489042E-2,7.405849457E-2,9.658921771E-2
4.054309250E0,3.262777854E-2,-2.259481072E-2,9.802199230E-3,4.088007478E-2
4.064271250E0,1.790444613E-2,5.215774834E-2,-2.974610165E-2,6.265644793E-2
4.074233250E0,-1.807840765E-2,6.932634294E-2,-4.055219471E-2,8.232527646E-2
4.084195250E0,-2.873342328E-3,6.152440310E-2,5.253065452E-3,6.181507073E-2
4.094157250E0,1.104629257E-2,2.095232785E-2,3.493177794E-2,4.220485436E-2
4.104119250E0,4.844615512E-2,4.266771734E-2,9.806292281E-3,6.529722365E-2
4.114081250E0,3.402743295E-2,-1.328779757E-2,-5.612230673E-3,3.695847522E-2
4.124044250E0,-6.678084440E-3,-1.982907772E-1,4.170928560E-2,2.027399656E-1
4.134006250E0,2.068111069E-2,-2.126497847E-1,-4.492430404E-2,2.183250612E-1
4.143968250E0,5.762725214E-2,-1.405963004E-2,-1.330773658E-1,1.456988629E-1
4.153930250E0,2.668954732E-3,1.552839214E-1,-5.285649061E-2,1.640549547E-1
4.163892250E0,-6.559167149E-2,7.079750240E-2,7.051676296E-2,1.195289403E-1
4.173854250E0,-2.894948018E-2,-4.931483209E-2,2.385773621E-2,6.196141254E-2
4.183816250E0,1.810970396E-2,-8.977581024E-2,-6.339960515E-2,1.113874653E-1
4.193778250E0,1.062207936E-2,-2.346955419E-2,-5.151923239E-2,5.760104035E-2
4.203740250E0,-3.804466882E-2,1.962442517E-2,4.849154413E-2,6.468341936E-2
4.213702250E0,-4.285533987E-2,4.680754602E-2,5.659052253E-2,8.502948759E-2
4.223665250E0,-1.629015780E-2,4.325419307E-2,1.040278137E-2,4.737628435E-2
4.233627250E0,4.042627858E-3,3.473129153E-2,4.339218736E-2,5.572689992E-2
4.243589250E0,1.932482161E-2,2.963953614E-3,7.111442149E-2,7.375293007E-2
4.253551250E0,3.101751474E-2,-1.152486205E-3,-5.841953158E-3,3.158390194E-2
4.263513250E0,4.707416992E-2,1.376668453E-2,-8.392808296E-2,9.720813847E-2
4.273475250E0,3.378285717E-2,2.230946660E-2,-5.723839402E-2,7.010868340E-2
4.283437250E0,2.163791160E-2,3.430210590E-2,5.021530330E-2,6.454773717E-2
4.293399250E0,4.151196948E-2,1.557639778E-2,4.811673760E-2,6.543002534E-2
4.303361250E0,4.195270336E-2,-2.218492091E-2,3.699898794E-2,6.017578536E-2
4.313323250E0,3.173289188E-2,-4.736595511E-2,3.038944155E-3,5.709417932E-2
4.323286250E0,7.577155516E-3,-3.507452309E-2,-1.389590800E-2,3.848027696E-2
4.333248250E0,1.952035844E-3,1.812461436E-2,-3.828639865E-2,4.240472157E-2
4.343210250E0,-1.500116880E-2,4.277939916E-2,-2.675554320E-2,5.264001472E-2
4.353172250E0,-2.954621138E-2,-1.188914359E-2,2.341868341E-2,3.953182357E-2
4.363134250E0,-3.241059559E-2,-4.051769614E-2,6.243905380E-2,8.118353187E-2
4.373096250E0,-4.567714676E-3,-9.760757089E-3,3.614215158E-2,3.771460615E-2
4.383058250E0,-1.728042488E-2,3.428222537E-2,5.211506367E-2,6.472915820E-2
4.393020250E0,-2.814900093E-2,7.557058454E-2,8.993777812E-2,1.207976963E-1
4.402982250E0,-2.815662744E-3,4.837693870E-2,7.251424491E-2,8.721566299E-2
4.412944250E0,2.172988191E-2,1.457184613E-2,1.597042702E-2,3.065258564E-2
4.422907250E0,3.161406321E-2,2.775088549E-3,-2.368940949E-2,3.960225033E-2
4.432869250E0,2.558143829E-2,3.230879009E-2,-1.262187280E-2,4.309964704E-2
4.442831250E0,4.217789426E-2,4.178011000E-2,1.767613292E-3,5.939424898E-2
4.452793250E0,3.106480866E-2,1.653534114E-2,-1.447887540E-2,3.805361582E-2
4.462755250E0,3.132722074E-2,-6.433106661E-3,-4.604682326E-5,3.198095903E-2
4.472717250E0,4.373033458E-2,-3.028331459E-2,8.818185925E-3,5.391828732E-2
4.482679250E0,3.364571940E-2,-1.875845253E-2,-4.716254510E-2,6.089515281E-2
4.492641250E0,-7.685303881E-3,-1.257092893E-2,-3.808357336E-2,4.083443044E-2
4.502603250E0,-1.492923663E-2,3.917634487E-4,-9.783049598E-3,1.785339308E-2
4.512565250E0,-2.513848201E-2,-6.958771348E-3,-2.008935191E-2,3.292339345E-2
4.522527250E0,-1.513510887E-2,-3.672168374E-2,-1.733348608E-2,4.333593563E-2
4.532490250E0,-3.653237557E-2,-1.409588277E-2,2.079284504E-2,4.433566037E-2
4.542452250E0,-8.094551875E-3,2.375606775E-2,5.903363541E-2,6.414703917E-2
4.552414250E0,9.612297197E-3,1.832692802E-2,4.523347557E-2,4.974273675E-2
4.562376250E0,-2.081564461E-2,1.298140347E-2,8.627961382E-2,8.969938494E-2
4.572337750E0,1.109886727E-2,1.339889467E-2,7.865966856E-2,8.056090051E-2
4.582299750E0,2.019153428E-2,3.413779914E-2,2.783274651E-2,4.845357742E-2
4.592261750E0,9.467859550E-3,3.748533010E-2,3.849806786E-2,5.456089778E-2
4.602223750E0,3.524029166E-2,2.658436596E-2,2.938401282E-2,5.302854777E-2
4.612185750E0,2.555811109E-2,1.703293920E-2,2.890278697E-3,3.084950196E-2
4.622147750E0,2.403671355E-2,9.887056947E-3,-1.855906248E-3,2.605689700E-2
4.632110750E0,3.194643402E-2,6.955263019E-3,-8.771992922E-3,3.385111801E-2
4.642072750E0,9.078921494E-3,-9.580078125E-3,1.061810508E-2,1.693956516E-2
4.652034750E0,-6.976897717E-3,-2.505356491E-2,8.325192556E-3,2.730690476E-2
4.661996750E0,2.042637080E-2,-1.550915480E-2,-1.661778688E-2,3.056012676E-2
4.671958750E0,-3.333803709E-4,-5.775879622E-3,-2.114820957E-2,2.192529808E-2
4.681920750E0,-1.659759572E-2,-1.427656174E-2,-1.712240160E-2,2.779347109E-2
4.691882750E0,-1.647644415E-2,-1.436777830E-2,-1.888774909E-2,2.889036744E-2
4.701844750E0,-2.440934564E-2,-2.172825336E-3,-1.465970054E-3,2.454967194E-2
4.711806750E0,-1.608700132E-2,2.047694921E-2,2.456985399E-2,3.580188243E-2
4.721768750E0,5.756113292E-3,1.198094487E-2,1.941904172E-2,2.353242575E-2
4.731731750E0,6.966036970E-3,1.500687897E-2,1.431339920E-2,2.187705383E-2
4.741693750E0,1.790265542E-2,-7.294986248E-3,2.761639953E-2,3.371034587E-2
4.751655750E0,1.395124870E-2,2.306141853E-3,-3.995292820E-2,4.238150661E-2
4.761617750E0,1.803674167E-2,3.503476202E-2,-7.159096956E-2,8.171918699E-2
4.771579750E0,1.273945665E-2,3.338116944E-2,-5.927980319E-3,3.621791241E-2
4.781541750E0,2.270834721E-2,2.102074027E-3,3.773719892E-3,2.311555126E-2
4.791503750E0,2.147837169E-2,-2.450743496E-2,-3.576040149E-2,4.838120641E-2
4.801465750E0,3.023669446E-2,-1.202772260E-2,-1.561148107E-2,3.609213410E-2
4.811427750E0,2.208088615E-2,3.021314800E-2,7.694636129E-2,8.556367431E-2
4.821389750E0,3.109364274E-3,2.341868341E-2,1.565894584E-1,1.583614895E-1
4.831351750E0,-2.809164568E-3,-6.113263965E-3,1.517685753E-1,1.519176219E-1
4.841314750E0,-2.703035320E-3,-2.017815650E-2,9.389977835E-2,9.608138620E-2
4.851276750E0,-7.548983814E-3,-1.842925429E-2,7.981792890E-2,8.226497641E-2
4.861238750E0,-3.290691914E-3,-2.135461628E-2,7.160668395E-2,7.479549102E-2
4.871200750E0,4.132592753E-3,2.671592832E-3,6.437199712E-3,8.102670624E-3
4.881162750E0,-1.476669317E-2,3.688423634E-3,-2.231597163E-2,2.701226177E-2
4.891124750E0,-1.334165591E-3,1.093429327E-4,-7.045310140E-3,7.171356125E-3
4.901086750E0,3.651707231E-3,-1.165350080E-2,-3.207607090E-2,3.432219939E-2
4.911048750E0,6.070910480E-3,-5.565964580E-3,-4.325426616E-2,4.403143714E-2
4.921010750E0,1.751039861E-2,2.059038520E-2,6.388010010E-3,2.777381310E-2
4.930972750E0,1.834367481E-2,3.024706185E-2,4.198870942E-2,5.490379654E-2
4.940935750E0,1.835256441E-2,4.465343177E-2,6.751370609E-2,8.299907288E-2
4.950897750E0,2.381648594E-2,2.503836215E-2,3.628782034E-2,5.010938521E-2
4.960859750E0,1.630197100E-2,1.829769194E-2,-1.487180829E-2,2.866584153E-2
4.970821750E0,2.546406914E-2,-6.566423178E-4,-9.042901732E-2,9.394816214E-2
4.980783750E0,1.277387756E-2,1.891983569E-2,-6.660373315E-2,7.040731070E-2
4.990745750E0,9.390493578E-3,3.748357594E-2,-3.773676038E-2,5.401169243E-2
5.000707750E0,6.292136230E-3,2.471851945E-2,-1.209965066E-1,1.236557754E-1
5.010669750E0,-2.064223127E-2,-7.085655928E-3,-1.163959173E-1,1.184243125E-1
5.020631750E0,8.704745374E-3,1.955776691E-2,-6.187757492E-2,6.547604995E-2
5.030593750E0,6.844460566E-3,4.531358242E-2,1.350882232E-2,4.777714592E-2
5.040556750E0,1.451989727E-2,1.370294988E-2,8.012439609E-2,8.257431259E-2
5.050518750E0,1.783229697E-2,8.647447228E-3,1.058579922E-1,1.076971850E-1
5.060480750E0,7.057360886E-4,-1.652072310E-2,8.558445297E-2,8.716725845E-2
5.070442750E0,5.088954208E-2,-4.884179235E-3,6.208427399E-3,5.149898320E-2
5.080404750E0,2.870477193E-2,2.317193091E-2,7.668148242E-2,8.509378391E-2
5.090366750E0,8.263604930E-3,2.886068702E-2,1.224781179E-1,1.261035915E-1
5.100328750E0,2.168831642E-2,9.783561230E-3,8.362154268E-2,8.694057476E-2
5.110290750E0,2.054077066E-2,-1.517118573E-2,4.005627774E-2,4.750361588E-2
5.120252750E0,1.398558282E-2,-6.327856779E-3,7.658609971E-2,7.810933982E-2
5.130214750E0,-4.575103638E-3,-3.215383887E-3,7.597104572E-2,7.617657156E-2
5.140177750E0,5.555878133E-3,7.660437226E-3,1.059047699E-2,1.420240413E-2
5.150139750E0,-9.976916774E-3,9.425126910E-3,-2.683287263E-2,3.013925910E-2
5.160101750E0,-2.059642656E-2,1.859180689E-2,-4.951129854E-2,5.675594025E-2
5.170063750E0,-2.704992082E-2,3.919037819E-2,-2.527327403E-2,5.391031756E-2
5.180025750E0,-2.819696866E-2,1.234581113E-2,1.862922907E-3,3.083761624E-2
5.189987750E0,4.339648141E-3,4.343311787E-3,3.024640404E-2,3.086327689E-2
5.199949750E0,1.412469858E-2,-1.069455743E-2,-1.052498817E-2,2.060718430E-2
5.209911750E0,1.138340968E-2,-4.607605934E-3,-8.829880357E-3,1.512543671E-2
5.219873750E0,2.556832088E-2,3.274265349E-2,2.227847636E-2,4.713969558E-2
5.229835750E0,1.951205128E-2,2.952142239E-2,1.930648282E-2,4.031097622E-2
5.239797750E0,3.665698750E-2,5.051409602E-3,8.928259760E-3,3.806527675E-2
5.249760750E0,2.621149176E-2,-7.124832273E-3,1.109172955E-2,2.933993865E-2
5.259722750E0,1.725292470E-2,7.683826089E-3,-3.031196594E-3,1.912832316E-2
5.269684750E0,2.036505726E-2,-6.431937218E-5,-2.239542067E-2,3.027035780E-2
5.279646750E0,2.326267239E-2,-2.108447492E-2,-3.207826361E-2,4.488565479E-2
5.289608750E0,2.144635362E-3,-4.084104717E-2,-4.391850986E-2,6.001188301E-2
5.299570750E0,-4.571312084E-3,-1.799246728E-2,-7.854506314E-2,8.070906217E-2
5.309532750E0,-1.197429823E-3,1.690254629E-2,-5.682718858E-2,5.929974090E-2
5.319494750E0,-4.356426452E-2,1.351291537E-2,-7.317278758E-3,4.619509274E-2
5.329456750E0,-1.070996347E-2,8.021795154E-3,1.851228476E-3,1.350849962E-2
5.339418750E0,5.506158527E-3,1.404618144E-2,-9.799933434E-4,1.511864351E-2
5.349381750E0,1.523364587E-2,2.797307968E-2,3.510960639E-2,4.740508004E-2
5.359343750E0,3.449216097E-2,6.127589643E-2,9.118688956E-2,1.151498740E-1
5.369305750E0,2.258944545E-2,3.550429344E-2,8.323277593E-2,9.326592565E-2
5.379267750E0,2.496947920E-2,2.729948044E-2,1.096048880E-1,1.156804564E-1
5.389229750E0,1.892438555E-2,8.510037661E-3,1.165018250E-1,1.183352371E-1
5.399191750E0,2.207076087E-2,1.565533519E-2,1.322580978E-1,1.349978238E-1
5.409153750E0,2.368836568E-2,3.335134864E-2,7.811690077E-2,8.817993712E-2
5.419115750E0,1.494207309E-2,1.975072503E-2,1.107813478E-2,2.713082670E-2
5.429077750E0,1.773519893E-2,-7.428887486E-3,-2.613120675E-2,3.244326766E-2
5.439039750E0,4.568048150E-3,-1.928762555E-2,-1.086003363E-2,2.260132504E-2
5.449002750E0,2.066100632E-2,-5.064858198E-3,-3.155961558E-2,3.805968085E-2
5.458964750E0,2.207295586E-2,-1.340006411E-2,-1.872285761E-2,3.189549335E-2
5.468926750E0,-4.037018185E-3,-1.738494158E-2,3.878048837E-2,4.269027978E-2
5.478888750E0,-1.960088099E-2,-2.410105348E-2,7.224519990E-2,7.864111026E-2
5.488850750E0,6.778163190E-3,2.713108063E-4,2.100144446E-2,2.206983858E-2
5.498812750E0,-1.719295191E-2,4.862252176E-2,-4.864898041E-2,7.089760583E-2
5.508774750E0,-1.577842365E-2,3.369282603E-2,-6.087485053E-2,7.134362344E-2
5.518736750E0,-1.001518406E-3,1.587519050E-3,-4.863070786E-2,4.866691898E-2
5.528698750E0,2.171923358E-2,4.810796678E-2,-6.851891555E-2,8.649244686E-2
5.538660750E0,1.982453928E-2,3.793264210E-2,-3.651937008E-2,5.626332807E-2
5.548622750E0,1.467652956E-2,1.446133375E-2,-5.387185961E-3,2.129677127E-2
5.558585750E0,2.784846775E-2,-3.003714681E-3,-2.936413229E-2,4.058092807E-2
5.568547458E0,4.168806204E-2,-3.526455760E-3,-6.050523341E-2,7.356095212E-2
5.578509458E0,3.359835695E-2,3.924651146E-3,-4.370501339E-2,5.526645160E-2
5.588471458E0,1.568924904E-2,4.663739204E-3,1.010983586E-3,1.639893553E-2
5.598433458E0,2.855505123E-2,-7.292062640E-3,-8.434096947E-3,3.065451222E-2
5.608395458E0,2.039424994E-2,-4.407631159E-3,-2.692935169E-2,3.406673782E-2
5.618357458E0,1.339125217E-2,-4.936219454E-3,8.780763745E-3,1.675690035E-2
5.628319458E0,3.418791618E-3,5.748982430E-3,4.970367193E-2,5.015170923E-2
5.638281458E0,-5.541100209E-3,-2.608442903E-3,5.008257151E-2,5.045564126E-2
5.648244458E0,2.536524434E-3,-3.063941002E-3,4.329570830E-2,4.347804098E-2
5.658206458E0,-1.394476651E-2,-4.293610454E-3,5.142567694E-2,5.345551284E-2
5.668168458E0,-4.865424747E-3,1.884206772E-2,5.315996110E-2,5.660986962E-2
5.678130458E0,-3.350255855E-3,3.280054092E-2,5.369556606E-2,6.301042385E-2
5.688092458E0,1.667740108E-3,3.685207665E-2,-1.489285827E-3,3.691984402E-2
5.698054458E0,1.230982791E-2,2.412678123E-2,3.071476601E-2,4.095156025E-2
5.708016458E0,-2.952222638E-3,5.487027168E-3,1.344602323E-1,1.346045213E-1
5.717978458E0,2.631301633E-2,2.285442710E-2,3.739118993E-2,5.111556271E-2
5.727940458E0,3.660607104E-2,1.224114597E-2,1.806029499E-2,4.261483716E-2
5.737902458E0,2.557423434E-2,-3.331158757E-3,4.097860292E-2,4.841883908E-2
5.747865458E0,1.980027790E-2,-9.650244713E-3,5.683084309E-2,6.095016780E-2
5.757827458E0,3.389311829E-2,-2.600432217E-2,2.035532713E-2,4.732132270E-2
5.767789458E0,2.081373742E-2,-1.003557622E-2,2.274610743E-2,3.242390875E-2
5.777751458E0,4.293599033E-3,1.787318408E-2,8.416884206E-2,8.615265333E-2
5.787713458E0,-9.559827573E-3,2.717668891E-2,8.090967715E-2,8.588561334E-2
5.797675458E0,-1.968993911E-2,-1.283463836E-3,4.920431972E-2,5.301326306E-2
5.807637458E0,1.151636532E-3,-1.281124949E-2,-3.266313136E-2,3.510462263E-2
5.817599458E0,-7.427048811E-3,-3.335251808E-3,-6.859434463E-2,6.907582120E-2
5.827561458E0,-1.177720595E-2,2.791285336E-2,-7.705234207E-2,8.279428351E-2
5.837523458E0,-1.736520266E-2,2.600841522E-2,-1.180289716E-1,1.221017037E-1
5.847485458E0,3.788237432E-3,1.299251318E-2,-1.376966661E-1,1.383601388E-1
5.857448458E0,1.518407245E-2,-5.753660202E-3,-1.071046916E-1,1.083285541E-1
5.867410458E0,1.790842270E-2,-1.140031636E-2,-7.503337160E-2,7.797875140E-2
5.877372458E0,4.622447812E-2,1.505131781E-2,-8.462156273E-2,9.759125691E-2
5.887334458E0,2.021058113E-2,3.976632893E-2,-8.881693996E-2,9.938952325E-2
5.897296458E0,9.597309139E-3,4.939610839E-2,-1.429936588E-2,5.231209928E-2
5.907258458E0,2.473249338E-2,1.648563981E-2,3.042598665E-2,4.253484703E-2
5.917220458E0,3.032797498E-2,-1.190493107E-3,2.475374892E-2,3.916569195E-2
5.927182458E0,3.695391413E-2,1.883972883E-3,5.286833122E-2,6.453062505E-2
5.937144458E0,2.309675307E-2,5.810962915E-3,3.263448000E-2,4.040094773E-2
5.947106458E0,3.064075305E-2,3.280872703E-3,1.650785923E-2,3.495896580E-2
5.957069458E0,2.865818835E-2,8.245743513E-3,-2.995630905E-2,4.226895430E-2
5.967031458E0,3.993084126E-3,-1.535771191E-2,1.273245826E-2,2.034501240E-2
5.976993458E0,-3.428862533E-2,-3.043768108E-2,9.382164493E-2,1.044253959E-1
5.986955458E0,-3.254522317E-2,-2.357363462E-2,1.311952932E-1,1.372119265E-1
5.996917458E0,-4.231427142E-2,1.343807101E-2,1.519336130E-1,1.582874034E-1
6.006879458E0,-3.224903657E-2,1.772583425E-2,1.472100860E-1,1.517399584E-1
6.016841458E0,-3.987634338E-3,2.282519102E-2,1.532216084E-1,1.549637114E-1
6.026803458E0,1.141937691E-2,3.126447737E-2,1.249057357E-1,1.292645061E-1
6.036765458E0,2.541609456E-2,1.862747490E-2,1.625782498E-1,1.656038888E-1
6.046727458E0,2.441570220E-2,-1.449817121E-2,1.638272882E-1,1.662699727E-1
6.056690458E0,3.950642933E-2,-1.005136371E-3,7.866602741E-2,8.803472114E-2
6.066652458E0,2.244193801E-2,8.278487921E-3,8.685381040E-3,2.544817848E-2
6.076614458E0,1.780625631E-2,-5.607479811E-3,-3.643524326E-2,4.093938868E-2
6.086576458E0,1.107889309E-2,9.000034332E-3,-5.225846663E-2,5.417277752E-2
6.096538458E0,1.517162884E-3,4.017504930E-2,-1.066556986E-1,1.139814652E-1
6.106500458E0,1.630395357E-2,6.848083556E-2,-1.150007717E-1,1.348355340E-1
6.116462458E0,9.672518950E-3,5.430309176E-3,-9.819185391E-2,9.881642604E-2
6.126424458E0,-1.335177433E-3,-2.130549967E-2,-9.905541457E-2,1.013295720E-1
6.136386458E0,4.683505534E-3,-2.167562842E-3,-1.105060901E-1,1.106265316E-1
6.146348458E0,-8.311442463E-3,2.832391262E-3,-9.330760159E-2,9.371985398E-2
6.156311458E0,-3.134507302E-3,2.643116891E-2,-2.768715084E-2,3.840586085E-2
6.166273458E0,4.322508490E-3,9.461964369E-3,5.778218508E-3,1.189960749E-2
6.176235458E0,-6.068039406E-3,8.783102632E-3,1.973669171E-2,2.243882782E-2
6.186197458E0,8.256302762E-3,2.715446949E-3,-4.466688037E-3,9.771974696E-3
6.196159458E0,1.269746862E-2,-9.026931524E-3,-1.263144761E-3,1.563031467E-2
6.206121458E0,-4.516357393E-4,8.579619527E-3,-5.639127865E-3,1.027684821E-2
6.216083458E0,2.379670362E-2,1.527760506E-2,-1.350239038E-2,3.133692495E-2
6.226045458E0,1.931500240E-2,2.334208488E-2,2.873146355E-2,4.175427214E-2
6.236007458E0,1.024700104E-2,-1.754749417E-2,5.621213458E-2,5.977223148E-2
6.245969458E0,3.990645197E-2,-2.162709653E-2,4.251503192E-2,6.219151190E-2
6.255931458E0,8.466587823E-3,-2.409403682E-2,5.699339569E-2,6.245360575E-2
6.265894458E0,2.298683227E-2,7.051742077E-4,-5.073979855E-2,5.570833766E-2
6.275856458E0,1.703520042E-2,2.629551351E-2,-1.685752273E-2,3.557847884E-2
6.285818458E0,2.815368099E-3,1.084541559E-2,6.115500525E-2,6.217301668E-2
6.295780458E0,3.665265462E-3,9.411093593E-3,8.852267884E-2,8.909695574E-2
6.305742458E0,9.518431113E-3,-5.086492896E-3,4.623444580E-2,4.747733058E-2
6.315704458E0,-8.821303679E-3,1.646926761E-2,2.287832759E-2,2.953760396E-2
6.325666458E0,-4.797672420E-3,5.207354844E-2,4.973685488E-2,7.216943148E-2
6.335628458E0,-3.723664528E-3,4.904527545E-2,2.404492021E-2,5.474909049E-2
6.345590458E0,-4.087624010E-3,1.662363410E-2,5.742608964E-2,5.992336483E-2
6.355552458E0,2.695271086E-2,-1.226219594E-2,8.733167410E-2,9.221513635E-2
6.365515458E0,1.678325395E-2,-3.179131150E-3,7.883735083E-2,8.066667449E-2
6.375477458E0,2.354927046E-2,3.008100092E-2,7.886190914E-2,8.762782360E-2
6.385439458E0,1.142127954E-3,6.584491074E-2,3.425415874E-2,7.423074914E-2
6.395401458E0,-1.413080161E-3,2.408000350E-2,-1.778006718E-2,2.996621686E-2
6.405363458E0,8.078999652E-3,-2.508455515E-3,-5.346854791E-2,5.413361433E-2
6.415325458E0,1.315447420E-2,-3.325837791E-2,-2.450158775E-2,4.335305866E-2
6.425287458E0,1.095561277E-2,-9.059091210E-3,9.583001733E-3,1.714428496E-2
6.435249458E0,1.311992766E-2,9.297072887E-4,2.574704468E-2,2.891205920E-2
6.445211458E0,1.357981574E-3,6.434276104E-3,2.973601520E-2,3.045446803E-2
6.455173458E0,5.232447165E-3,-2.219486117E-2,2.629273608E-2,3.480371153E-2
6.465136458E0,1.178072799E-2,-2.852564156E-2,1.317670047E-2,3.355775937E-2
6.475098458E0,2.886661189E-2,-7.903096676E-3,-1.950455725E-2,3.572349329E-2
6.485060458E0,2.299778667E-2,-8.644523621E-3,-8.119560599E-2,8.483131741E-2
6.495022458E0,-1.007988944E-2,5.536143780E-3,-1.303369220E-1,1.308432890E-1
6.504984458E0,-1.335661656E-2,2.115464151E-2,-9.448998168E-2,9.774597026E-2
6.514946458E0,-8.894697656E-3,3.727950811E-2,-3.138207950E-2,4.953496023E-2
6.524908458E0,1.099961763E-4,5.147479355E-2,1.972207367E-2,5.512373954E-2
6.534870458E0,1.551662827E-2,2.057927549E-2,4.109306216E-2,4.850682519E-2
6.544832458E0,2.271949346E-2,-4.058552384E-3,3.044045851E-2,3.820037624E-2
6.554794458E0,2.732002335E-2,-6.568177342E-3,2.229075551E-2,3.586645244E-2
6.564757458E0,9.838755748E-3,-1.027823567E-2,1.895842731E-2,2.370369611E-2
6.574718833E0,-4.884894148E-3,2.924251020E-2,2.701289378E-2,4.010839094E-2
6.584680833E0,6.324707048E-3,2.625165939E-2,1.200901151E-2,2.955279847E-2
6.594642833E0,9.550917421E-3,-1.834271550E-2,1.457243085E-2,2.529883350E-2
6.604604833E0,1.632223069E-2,-3.131300926E-2,-3.071995541E-2,4.680422443E-2
6.614566833E0,2.430335572E-2,6.497426033E-3,-3.133530177E-2,4.018421060E-2
6.624528833E0,1.080897785E-2,1.365383327E-2,-1.072189316E-2,2.045043173E-2
6.634490833E0,-7.686251770E-3,2.844962776E-2,1.717561126E-2,3.410955010E-2
6.644452833E0,1.985997660E-4,-8.272055984E-3,3.948449314E-2,4.034218078E-2
6.654414833E0,2.475712478E-2,-1.149211764E-2,5.954336643E-2,6.550111817E-2
6.664377833E0,1.022283331E-2,-8.776085973E-3,8.401981115E-2,8.509321167E-2
6.674339833E0,-6.445897445E-3,1.167513549E-2,1.239662343E-1,1.246815369E-1
6.684301833E0,-6.783505627E-3,1.029051483E-2,1.778243530E-1,1.782509780E-1
6.694263833E0,-4.552276656E-3,2.496644139E-2,1.446203542E-1,1.468301511E-1
6.704225833E0,2.183392351E-2,1.202596843E-2,8.148460463E-2,8.521199988E-2
6.714187833E0,1.629687524E-3,2.089385569E-2,5.837056115E-2,6.201879954E-2
6.724149833E0,-1.647103548E-2,8.812923431E-3,-4.444395527E-2,4.821024569E-2
6.734111833E0,1.513615726E-2,1.150790513E-2,-1.489512406E-1,1.501599388E-1
6.744073833E0,1.063930581E-2,-3.785487413E-3,-1.330516380E-1,1.335300083E-1
6.754035833E0,6.637380053E-3,3.004299402E-3,-6.678221941E-2,6.717845978E-2
6.763998833E0,2.458532627E-2,1.313810885E-2,-4.413653791E-2,5.220231940E-2
6.773960833E0,8.302904614E-3,-4.552642107E-3,1.049224377E-2,1.413336317E-2
6.783922833E0,6.243729964E-4,4.677187800E-3,5.368854940E-2,5.389551247E-2
6.793884833E0,2.088228460E-2,-8.084360361E-3,-1.192371525E-2,2.536930582E-2
6.803846833E0,1.348129473E-2,1.017941773E-2,-5.729460038E-2,5.973304852E-2
6.813808833E0,1.517250592E-2,1.573661149E-2,-2.441453733E-2,3.277065013E-2
6.823770833E0,4.931943677E-3,7.516595721E-3,1.182248533E-2,1.485242199E-2
6.833732833E0,4.886924685E-3,-2.792630196E-3,9.225152135E-3,1.080667609E-2
6.843694833E0,1.481704089E-2,2.269538283E-2,-4.614695683E-2,5.351791034E-2
6.853656833E0,4.888596623E-3,1.333925307E-2,-1.055312790E-2,1.769752971E-2
6.863619833E0,4.566785060E-3,8.327019811E-3,2.531011149E-2,2.703324857E-2
6.873581833E0,1.309911523E-2,-3.279118538E-3,1.680365525E-2,2.155695405E-2
6.883543833E0,1.465189360E-2,1.893971622E-2,2.585346401E-2,3.523907544E-2
6.893505833E0,-2.154381939E-2,2.151833832E-2,3.688028947E-2,4.782604718E-2
6.903467833E0,1.401593124E-2,1.093312383E-2,-1.116642773E-2,2.099210883E-2
6.913429833E0,2.276047422E-2,2.043309510E-2,-6.279149473E-2,6.984498817E-2
6.923391833E0,-4.461854948E-3,2.421916723E-3,-2.222943284E-2,2.280178753E-2
6.933353833E0,1.437678667E-2,-2.859288454E-3,8.678291291E-3,1.703467831E-2
6.943315833E0,2.854255737E-2,1.059749365E-2,-2.056480363E-2,3.674092543E-2
6.953277833E0,2.178910552E-2,1.014784276E-2,-1.253891543E-2,2.711029753E-2
6.963240833E0,-3.575298283E-4,2.571313083E-2,4.115445793E-2,4.852816020E-2
6.973202833E0,1.333724309E-2,1.358542085E-2,6.542449594E-3,2.013080623E-2
6.983164833E0,1.136340581E-2,-5.434986949E-3,8.390023559E-3,1.513468104E-2
6.993126833E0,3.704188275E-3,-8.007177114E-3,3.556451976E-2,3.664247484E-2
7.003088833E0,-8.465781547E-3,1.305566311E-2,5.272310100E-2,5.497131230E-2
7.013050833E0,-1.563344467E-3,2.898874104E-2,7.270544887E-2,7.828712185E-2
7.023012833E0,2.487534817E-2,2.062312961E-3,6.101291791E-2,6.592125782E-2
7.032974833E0,1.513623035E-2,-4.842839420E-2,8.228274956E-2,9.666884560E-2
7.042936833E0,2.486691996E-2,-8.745329618E-2,7.079677150E-2,1.152329188E-1
7.052898833E0,-8.756127781E-3,-5.108127594E-3,8.847348914E-3,1.345504827E-2
7.062861833E0,-1.078623081E-2,1.693441361E-1,-8.242892995E-3,1.698873877E-1
7.072823833E0,-1.266214778E-2,1.616690809E-1,2.031892821E-2,1.634321894E-1
7.082785833E0,-1.055634615E-2,-4.896282971E-2,6.601506472E-3,5.052103547E-2
7.092747833E0,1.481690385E-2,-1.366792506E-1,-7.333811760E-2,1.558179633E-1
7.102709833E0,4.480688921E-2,-5.638002276E-2,-1.180437358E-1,1.382775753E-1
7.112671833E0,3.337314322E-3,5.572338045E-2,-5.210526958E-2,7.636224141E-2
7.122633833E0,-1.216994470E-2,1.187598735E-1,-5.476575270E-3,1.195073554E-1
7.132595833E0,-8.446832914E-3,3.929036558E-2,1.452623785E-2,4.273281408E-2
7.142557833E0,3.193749418E-2,-3.843082488E-2,7.439872943E-2,8.962199940E-2
7.152519833E0,2.644014759E-2,-4.871315360E-2,8.919576645E-2,1.050139871E-1
7.162482833E0,2.945313787E-2,-1.906660080E-2,3.032877669E-3,3.521677077E-2
7.172444833E0,1.731990729E-2,2.541492283E-2,-3.284439504E-2,4.499613069E-2
7.182406833E0,7.792360461E-3,4.745190918E-2,2.804317318E-2,5.566708299E-2
7.192368833E0,1.767533349E-2,4.206545413E-2,6.319860712E-2,7.794859708E-2
7.202330833E0,5.368426905E-3,-1.858186662E-2,4.188419044E-2,4.613449017E-2
7.212292833E0,-8.895419422E-4,-5.408557534E-2,2.480228081E-2,5.950793122E-2
7.222254833E0,1.972679484E-2,-1.367663741E-2,-2.213580430E-2,3.265257536E-2
7.232216833E0,4.989303492E-3,3.068794191E-2,-6.343892768E-2,7.064800403E-2
7.242178833E0,-1.619882018E-2,4.456221521E-2,-4.937096536E-2,6.845206367E-2
7.252140833E0,-1.366307461E-2,1.624064147E-2,-2.237729430E-3,2.134116858E-2
7.262103833E0,2.835885887E-3,-3.753678560E-2,3.764671326E-2,5.323840288E-2
7.272065833E0,2.154781880E-2,-2.759418011E-2,5.033005491E-2,6.130955633E-2
7.282027833E0,2.479036940E-2,3.650826037E-2,3.184174374E-2,5.441793945E-2
7.291989833E0,7.615936717E-3,7.156816542E-2,2.672543004E-2,7.677404122E-2
7.301951833E0,2.622270654E-3,3.341976106E-2,1.751182616E-2,3.782090412E-2
7.311913833E0,2.589370930E-3,-2.659839928E-2,5.917893872E-3,2.737153912E-2
7.321875833E0,3.405753469E-2,-3.721869707E-2,-2.036175907E-2,5.440356894E-2
7.331837833E0,4.499717496E-2,1.190902412E-2,4.183024988E-3,4.673401661E-2
7.341799833E0,9.297685018E-3,5.789445162E-2,2.108038187E-2,6.231048848E-2
7.351761833E0,3.215783599E-3,4.127549529E-2,3.054526985E-2,5.144921074E-2
7.361724833E0,-5.168904376E-3,2.943429887E-2,9.289763868E-4,2.989913911E-2
7.371686833E0,1.656410899E-2,-1.805854082E-2,2.366119668E-2,3.406365851E-2
7.381648833E0,1.727449544E-2,-1.377077758E-2,1.596348345E-2,2.725573906E-2
7.391610833E0,-6.709172898E-3,3.617789268E-2,-9.902259707E-3,3.810390620E-2
7.401572833E0,-8.646846518E-3,4.975395799E-2,8.380814195E-3,5.119045162E-2
7.411534833E0,-1.040138580E-2,6.009183526E-3,2.177459255E-2,2.486829294E-2
7.421496833E0,7.202977112E-3,-2.753219962E-2,2.427763939E-3,2.856219412E-2
7.431458833E0,5.620188368E-3,-2.814440310E-2,1.633887470E-2,3.302503247E-2
7.441420833E0,1.145333187E-2,-8.825202584E-3,-8.608343974E-3,1.682755471E-2
7.451382833E0,6.842642447E-3,-1.582841277E-3,-6.203501120E-2,6.243132032E-2
7.461345833E0,-5.589109047E-3,5.720331073E-3,-4.721875146E-2,4.789123946E-2
7.471307833E0,1.031919131E-2,1.814566433E-2,-1.627177790E-2,2.646736858E-2
7.481269833E0,1.614744462E-2,9.159663320E-3,4.437086508E-2,4.809795284E-2
7.491231833E0,1.322990100E-2,-8.841574788E-3,5.147318557E-2,5.387664204E-2
7.501193833E0,7.723048115E-3,-4.263204932E-3,1.405685261E-2,1.659564683E-2
7.511155833E0,1.892593643E-2,1.050452292E-2,-1.471159458E-3,2.169563048E-2
7.521117833E0,-4.588470007E-3,3.694387794E-2,1.523652837E-2,4.022506645E-2
7.531079833E0,-5.502138566E-4,2.265737593E-2,1.408820830E-2,2.668589576E-2
7.541041833E0,-1.297497153E-3,4.770743251E-3,3.503651619E-2,3.538362555E-2
7.551003833E0,2.327406532E-3,1.590208769E-2,3.508855641E-2,3.859404105E-2
7.560966833E0,3.524464052E-2,1.265337467E-3,2.367771506E-2,4.247846460E-2
7.570929208E0,1.506125579E-2,3.528794646E-3,2.499202296E-2,2.939209127E-2
7.580891208E0,-6.767382387E-3,1.607691944E-2,8.722342752E-2,8.895049809E-2
7.590853208E0,1.640326716E-2,4.574861526E-3,1.369920766E-1,1.380464617E-1
7.600815208E0,2.613130040E-2,1.468586683E-2,1.013216492E-1,1.056626525E-1
7.610777208E0,1.256430285E-2,7.413684726E-3,2.529169276E-2,2.919750246E-2
7.620739208E0,2.094454374E-3,-9.864252806E-3,-2.911796451E-2,3.081470557E-2
7.630701208E0,-3.437043610E-4,1.505658031E-3,-5.342257418E-2,5.344489284E-2
7.640663208E0,8.400553116E-4,2.463081121E-2,-1.105650739E-1,1.132784980E-1
7.650625208E0,8.262435487E-3,1.685576856E-2,-7.937595248E-2,8.156547435E-2
7.660588208E0,1.717496487E-2,1.484315693E-2,-4.684438348E-2,5.205473071E-2
7.670550208E0,3.139836034E-3,1.659439802E-3,-6.876837239E-2,6.886001272E-2
7.680512208E0,6.570952486E-3,2.894371748E-3,-5.750488088E-2,5.795141179E-2
7.690474208E0,1.656032885E-2,5.050240159E-3,-1.099978209E-2,2.051206044E-2
7.700436208E0,1.056978104E-2,6.886850595E-3,6.162439048E-2,6.290242034E-2
7.710398208E0,2.356125269E-2,1.475252509E-3,8.443978742E-2,8.767774345E-2
7.720360208E0,1.142469651E-2,1.305040061E-2,1.036991271E-1,1.051396481E-1
7.730322208E0,1.604477802E-2,3.158665895E-3,8.885823593E-2,9.035041873E-2
7.740284208E0,1.512591778E-2,1.237387776E-2,9.475237548E-2,9.674667384E-2
7.750246208E0,-1.910304768E-2,-1.805035472E-3,4.359976351E-2,4.763532263E-2
7.760209208E0,4.363614873E-3,5.121576190E-3,-1.486128330E-2,1.631347354E-2
7.770171208E0,6.331828774E-3,5.191158056E-3,-3.605744004E-2,3.697538587E-2
7.780133208E0,-1.016849075E-3,1.562492967E-2,-1.179968119E-2,1.960624608E-2
7.790095208E0,-3.164782631E-4,3.755666614E-3,4.417498335E-2,4.433547501E-2
7.800057208E0,9.126955457E-3,8.497173786E-3,3.583868109E-2,3.794620324E-2
7.810019208E0,1.024864557E-2,9.945529103E-3,5.643659458E-3,1.535575388E-2
7.819981208E0,8.465450357E-3,4.513465762E-3,2.120200396E-2,2.327144591E-2
7.829943208E0,1.256614609E-3,6.866385341E-3,-7.705533877E-3,1.039719098E-2
7.839905208E0,2.627740313E-2,3.438981414E-2,-5.676360011E-2,7.138114267E-2
7.849867208E0,1.514990506E-2,3.141533554E-2,-1.459450409E-2,3.780796847E-2
7.859830208E0,6.747243754E-3,1.869939566E-2,3.053138271E-2,3.643292503E-2
7.869792208E0,1.116796948E-2,6.710264683E-3,4.295496181E-2,4.488741403E-2
7.879754208E0,1.009242669E-2,-4.692390561E-3,4.153423458E-3,1.187966886E-2
7.889716208E0,3.201476193E-3,-9.079556465E-3,2.423086166E-2,2.607340508E-2
7.899678208E0,1.446889402E-2,2.106167078E-3,1.447361290E-2,2.057353408E-2
7.909640208E0,3.952443693E-4,2.138619125E-2,-3.867355742E-2,4.419467657E-2
7.919602208E0,1.198233815E-3,2.173000753E-2,-9.525158152E-2,9.770615525E-2
7.929564208E0,3.208099992E-3,1.301648676E-2,-5.245010912E-2,5.413626123E-2
7.939526208E0,-8.198566076E-3,1.061854362E-2,-8.435266390E-3,1.584688214E-2
7.949488208E0,4.079581804E-3,-4.543286562E-4,3.162642002E-2,3.189168929E-2
7.959451208E0,6.115292218E-3,-2.638322175E-2,3.238597333E-2,4.221756101E-2
7.969413208E0,2.271183498E-2,-1.849649727E-2,1.098998800E-2,3.128462395E-2
7.979375208E0,-5.410090601E-3,2.938518226E-2,-8.899316043E-3,3.117620636E-2
7.989337208E0,7.536526504E-3,5.675190568E-2,6.468950093E-2,8.638466045E-2
7.999299208E0,-7.045718988E-3,-2.616044283E-3,8.850930333E-2,8.882782571E-2
8.009261208E0,1.275767438E-2,-4.678766549E-2,9.928923011E-2,1.104997516E-1
8.019223208E0,4.092314573E-2,-1.111789584E-2,1.208624592E-1,1.280860863E-1
8.029185208E0,1.890603534E-3,2.235682905E-2,1.097650286E-1,1.120346540E-1
8.039147208E0,3.057869948E-3,5.445161104E-2,8.745095730E-3,5.523409466E-2
8.049109208E0,1.789016385E-2,3.490144551E-2,5.564729355E-2,6.807929304E-2
8.059072208E0,-6.530284644E-3,5.692264438E-3,1.136868292E-1,1.140164095E-1
8.069034208E0,4.385990522E-2,-1.781705081E-2,-4.468040206E-2,6.509590551E-2
8.078996208E0,4.493970323E-2,-2.955825984E-2,-1.367851583E-1,1.469811116E-1
8.088958208E0,7.867867202E-3,2.047694921E-3,-9.207500853E-2,9.243323852E-2
8.098920208E0,-2.544763070E-2,3.029734790E-2,-5.572696187E-2,6.834475457E-2
8.108882208E0,8.878261498E-3,2.239074290E-2,-6.408913806E-2,6.846595148E-2
8.118844208E0,1.593203411E-2,3.453950286E-3,-5.676316157E-2,5.905773442E-2
8.128806208E0,-1.844156999E-5,-3.625156760E-2,1.230721951E-2,3.828373213E-2
8.138768208E0,-1.001913321E-2,-1.251128733E-2,7.680485867E-2,7.845955427E-2
8.148730208E0,-3.413905995E-4,3.061309755E-2,7.622064874E-2,8.213930595E-2
8.158693208E0,2.667048677E-2,3.537273109E-2,6.232547164E-2,7.646573994E-2
8.168655208E0,7.260106236E-3,-1.708790302E-2,9.252802156E-2,9.437234948E-2
8.178617208E0,2.247677691E-2,-1.197041988E-2,4.902064405E-2,5.524056477E-2
8.188579208E0,2.661820672E-2,7.694935799E-4,-8.148095012E-3,2.784802510E-2
8.198541208E0,2.740026953E-2,1.712181687E-2,-4.096274234E-2,5.217161723E-2
8.208503208E0,-3.380250244E-3,2.693870723E-2,-2.760353565E-2,3.871789276E-2
8.218465208E0,9.862937182E-3,2.375782192E-2,-2.481719121E-2,3.574359540E-2
8.228427208E0,8.582170832E-3,1.042792439E-2,-6.681437910E-2,6.816565497E-2
8.238389208E0,1.449916250E-2,1.438648939E-2,-8.155974135E-2,8.407846454E-2
8.248351208E0,1.410509214E-2,4.945574999E-3,-9.168375671E-2,9.289415256E-2
8.258314208E0,1.219030260E-2,3.566216826E-2,-7.497957721E-2,8.391859581E-2
8.268276208E0,1.461047430E-2,2.374905109E-2,-2.535886265E-2,3.769025474E-2
8.278238208E0,-3.466124372E-3,6.193370819E-3,-1.736155272E-2,1.875620892E-2
8.288200208E0,4.259520730E-3,-1.181020617E-2,2.131660938E-2,2.473908491E-2
8.298162208E0,8.463273640E-4,3.993648291E-3,5.438371025E-2,5.453671641E-2
8.308124208E0,-6.626539864E-3,-9.445007443E-3,6.569507584E-2,6.670054112E-2
8.318086208E0,-1.743572556E-2,-7.806032896E-3,6.574887022E-2,6.846789475E-2
8.328048208E0,-2.637514528E-3,-8.894784451E-3,4.698471665E-2,4.789193327E-2
8.338010208E0,1.602424881E-2,1.556645751E-2,8.648031950E-2,8.931929696E-2
8.347972208E0,1.241276403E-2,2.753980100E-2,9.936699808E-2,1.038571984E-1
8.357935208E0,1.335542199E-2,6.376388669E-3,6.193019986E-2,6.367397650E-2
8.367897208E0,5.906747617E-3,-8.078513145E-3,1.623961821E-2,1.907556662E-2
8.377859208E0,1.361273602E-2,1.189557552E-2,-1.284516335E-2,2.217677886E-2
8.387821208E0,-3.407419240E-4,3.681290030E-2,1.970570147E-2,4.175668095E-2
8.397783208E0,1.367857430E-2,1.019462049E-2,7.110974371E-2,7.312748685E-2
8.407745208E0,3.927730070E-3,4.470196366E-3,7.405600950E-2,7.429469875E-2
8.417707208E0,1.545493558E-2,9.796425104E-3,2.352736853E-2,2.980540301E-2
8.427669208E0,-5.851395498E-4,1.213180304E-2,6.505758315E-3,1.377853129E-2
8.437631208E0,5.856938933E-3,2.583416820E-2,2.521494806E-2,3.657186877E-2
8.447593208E0,3.437009349E-3,6.173490286E-3,-1.987000823E-2,2.108891279E-2
8.457556208E0,9.079670669E-3,-1.178447843E-2,-6.581625938E-2,6.747662077E-2
8.467518208E0,1.389696552E-2,-1.109801531E-2,-1.017030338E-1,1.032463011E-1
8.477480208E0,-7.655026268E-3,1.001861930E-2,-7.022199020E-2,7.134493722E-2
8.487442208E0,7.992083989E-3,1.576760173E-2,-3.463313140E-2,3.888373003E-2
8.497404208E0,8.187908612E-3,5.202852488E-3,2.564822674E-2,2.742158012E-2
8.507366208E0,1.346167001E-2,6.034326553E-4,2.447995305E-2,2.794367177E-2
8.517328208E0,1.860978936E-2,3.928744197E-3,2.734742761E-3,1.921556944E-2
8.527290208E0,2.384251290E-2,2.162300348E-3,1.141683474E-2,2.652329315E-2
8.537252208E0,7.187095983E-4,1.132079422E-2,1.096996129E-2,1.578027173E-2
8.547214208E0,-1.293187116E-3,2.648788691E-4,6.866385341E-3,6.992119949E-3
8.557177208E0,1.208184589E-2,9.431558847E-3,-1.145688817E-2,1.913597630E-2
8.567139125E0,1.693205188E-2,1.415844798E-2,-5.396322235E-2,5.830253337E-2
8.577101125E0,-7.807147522E-3,3.086745143E-3,-7.920353271E-2,7.964721679E-2
8.587063125E0,4.619807429E-3,6.869308949E-3,-1.513507918E-2,1.725110570E-2
8.597025125E0,-1.976355464E-2,1.000224710E-2,1.097895869E-1,1.120017698E-1
8.606987125E0,-2.100282632E-2,1.492326379E-2,2.454485714E-1,2.467971307E-1
8.616949125E0,-1.597954959E-3,3.827587366E-3,1.473252030E-1,1.473835789E-1
8.626911125E0,2.238420133E-2,-8.636922240E-3,-1.568113603E-2,2.866263983E-2
8.636873125E0,-5.941744116E-3,-4.045103788E-3,5.356334589E-2,5.404349370E-2
8.646835125E0,-6.136447261E-3,1.376434565E-3,1.235206765E-1,1.236806698E-1
8.656798125E0,1.986084455E-2,7.946950793E-3,4.430025995E-2,4.919471724E-2
8.666760125E0,2.947493702E-2,2.216737926E-2,-4.985993877E-3,3.721592066E-2
8.676722125E0,6.779006012E-3,2.007641494E-2,4.762630239E-2,5.212755547E-2
8.686684125E0,1.648695087E-2,1.247035682E-2,-2.828298211E-2,3.503221982E-2
8.696646125E0,-1.411732561E-3,8.074420094E-3,-1.342083634E-1,1.344584474E-1
8.706608125E0,2.135441529E-2,1.996180952E-2,-1.714562235E-1,1.739302201E-1
8.716570125E0,2.909496850E-3,-3.759759665E-4,-8.184062697E-2,8.189319113E-2
8.726532125E0,1.311255926E-2,-2.243693590E-2,-5.721332408E-2,6.283883955E-2
8.736494125E0,3.414499396E-2,7.273936272E-4,-1.377611317E-2,3.682649872E-2
8.746457125E0,7.466757344E-3,2.359643877E-2,3.231807254E-2,4.070629190E-2
8.756419125E0,-1.222671065E-3,-8.931621909E-3,3.467457354E-2,3.582729190E-2
8.766381125E0,-2.181442671E-2,-2.428056300E-2,3.321101546E-2,4.656593712E-2
8.776343125E0,1.155804500E-2,6.332534552E-4,-1.237387776E-2,1.694409234E-2
8.786305125E0,3.325970724E-2,2.675627410E-2,-1.721595705E-2,4.602711708E-2
8.796267125E0,-1.959158940E-2,2.711529315E-2,7.137338005E-2,7.882403743E-2
8.806229125E0,-1.740265681E-2,1.093020022E-2,1.389311595E-1,1.404428312E-1
8.816191125E0,6.588930390E-3,-1.909115911E-3,1.254525965E-1,1.256400124E-1
8.826153125E0,1.581606966E-2,1.046066880E-3,1.070543325E-1,1.082214046E-1
8.836115125E0,-8.856156282E-4,2.102951109E-2,2.557338238E-2,3.312133056E-2
8.846078125E0,1.546825626E-2,-4.601758718E-4,-2.018056847E-2,2.543096651E-2
8.856040125E0,-7.739338093E-5,1.777612031E-2,-1.147382317E-1,1.161070982E-1
8.866002125E0,2.844813398E-2,1.439292133E-2,-9.777604379E-2,1.028426334E-1
8.875964125E0,8.957125819E-3,2.078100443E-3,-4.345943034E-2,4.442151156E-2
8.885926125E0,9.362168843E-4,2.511379123E-3,8.353917003E-3,8.773337816E-3
8.895888125E0,1.274351772E-2,3.254560232E-3,1.066115521E-2,1.693073054E-2
8.905850125E0,-5.885615414E-3,9.087742567E-3,3.496101402E-2,3.659918080E-2
8.915812125E0,-2.107405043E-3,7.270427942E-3,5.644660793E-2,5.695190801E-2
8.925774125E0,-6.044294229E-3,-2.373969555E-3,9.499561965E-2,9.521731449E-2
8.935736125E0,-2.272218866E-2,-2.288775623E-2,1.364658272E-1,1.402250664E-1
8.945699125E0,-1.451221823E-2,-4.583632350E-3,1.484748387E-1,1.492527785E-1
8.955661125E0,-2.833741603E-2,8.997110724E-3,1.088266966E-1,1.128149239E-1
8.965623125E0,-5.763833444E-3,2.089560986E-2,6.492631316E-2,6.844906448E-2
8.975585125E0,-2.099237671E-2,4.913415313E-3,7.355271041E-2,7.664739225E-2
8.985547125E0,2.172641241E-2,1.559043109E-2,-7.991572358E-2,8.427111850E-2
8.995509125E0,7.405175200E-2,1.169852436E-2,-1.157678533E-1,1.379228527E-1
9.005471125E0,-3.897412714E-2,2.495006919E-3,2.114504477E-1,2.150267413E-1
9.015433125E0,2.127793553E-2,1.835850298E-2,6.624661446E-2,7.196109434E-2
9.025395125E0,4.182634412E-2,4.192629039E-2,-1.636893670E-1,1.740731620E-1
9.035357125E0,3.942128839E-3,2.921970606E-2,-1.255637667E-1,1.289790336E-1
9.045320125E0,-2.979649734E-3,1.134242892E-2,-8.951502442E-2,9.027994575E-2
9.055282125E0,-1.872452041E-3,-1.336088777E-2,-5.488145448E-2,5.651542661E-2
9.065244125E0,2.413449224E-2,1.645991206E-3,-7.340543367E-2,7.728868413E-2
9.075206125E0,2.475231453E-3,1.859414577E-3,-3.434069753E-3,4.623529862E-3
9.085168125E0,-1.286475609E-2,-7.631201148E-3,4.228881776E-2,4.485622909E-2
9.095130125E0,-1.026367702E-2,-4.853773713E-3,-4.266713262E-3,1.212876858E-2
9.105092125E0,-1.432306537E-2,-1.839884877E-2,-1.451797865E-2,2.746706286E-2
9.115054125E0,-2.118638549E-2,-1.066181302E-2,1.719666123E-3,2.378012697E-2
9.125016125E0,7.085272204E-3,9.970672131E-3,-9.713687003E-5,1.223212249E-2
9.134978125E0,1.842446232E-2,4.526329637E-3,9.077276051E-2,9.273425754E-2
9.144941125E0,1.067097214E-2,1.847720146E-2,8.971733809E-2,9.221972334E-2
9.154903125E0,2.872104820E-2,1.639149964E-2,2.301054776E-2,4.028728308E-2
9.164865125E0,-1.082240588E-2,1.234873474E-2,8.989582434E-3,1.871973053E-2
9.174827125E0,1.359041382E-2,1.098867238E-2,-6.112679243E-3,1.851526710E-2
9.184789125E0,-1.814253973E-3,2.518688142E-2,9.005954638E-3,2.681003044E-2
9.194751125E0,-3.829250168E-3,1.452857673E-2,-3.189071417E-3,1.535945556E-2
9.204713125E0,-4.912360073E-3,1.508581638E-3,-5.766706802E-2,5.789557698E-2
9.214675125E0,1.464161529E-2,9.492954612E-3,-6.464096904E-2,6.695482032E-2
9.224637125E0,3.742488908E-2,1.544717431E-2,-9.225327551E-2,1.007467337E-1
9.234599125E0,3.918505631E-2,1.204701841E-2,-1.318161213E-1,1.380437943E-1
9.244562125E0,2.922590959E-2,8.449811339E-3,-1.255127498E-1,1.291472162E-1
9.254524125E0,3.281965858E-2,5.218639970E-3,-4.842313170E-2,5.872958263E-2
9.264486125E0,-1.846076987E-2,1.055422425E-2,-1.032801010E-2,2.364020868E-2
9.274448125E0,6.018068553E-3,-2.660541594E-2,1.158399202E-2,2.963535351E-2
9.284410125E0,1.424505073E-2,-1.678384781E-2,5.841660798E-2,6.242691010E-2
9.294372125E0,9.281682833E-3,-7.286215425E-3,4.552583635E-2,4.703020675E-2
9.304334125E0,2.332866827E-2,1.837604463E-2,-5.063688755E-3,3.012551615E-2
9.314296125E0,1.534268274E-3,1.651019812E-2,-1.719139874E-2,2.388482388E-2
9.324258125E0,1.148228701E-3,-8.679022193E-3,1.362912878E-3,8.860100840E-3
9.334221125E0,1.100117080E-2,-1.125998318E-2,1.118923187E-2,1.931351574E-2
9.344183125E0,1.373645260E-2,2.192179620E-2,3.074290574E-2,4.017936699E-2
9.354145125E0,1.307087044E-2,3.487045527E-2,5.252371095E-2,6.438584096E-2
9.364107125E0,2.318434254E-2,2.192355037E-2,-8.618211150E-3,3.305191920E-2
9.374069125E0,3.954846533E-3,1.841054320E-2,-1.799188256E-2,2.604413082E-2
9.384031125E0,5.802607792E-3,5.737872720E-3,4.988603197E-2,5.054908136E-2
9.393993125E0,-1.137206700E-2,-4.856697321E-3,3.502767228E-2,3.714632205E-2
9.403955125E0,4.769550967E-3,-4.233384132E-3,-3.222400546E-3,7.145209788E-3
9.413917125E0,1.881725360E-3,2.123533309E-2,2.396824859E-2,3.207736277E-2
9.423879125E0,3.380700205E-3,3.933188081E-2,8.435127519E-2,9.313196878E-2
9.433842125E0,-6.109499820E-3,1.377370119E-2,1.623813448E-1,1.630789440E-1
9.443804125E0,-2.308399427E-2,-5.051994324E-4,9.460736454E-2,9.738418476E-2
9.453766125E0,1.008132612E-2,-1.567053795E-4,2.504311301E-2,2.699657760E-2
9.463728125E0,1.257050866E-2,4.851434827E-3,-1.705347754E-2,2.173419435E-2
9.473690125E0,1.068330611E-2,1.514604270E-2,-6.099164866E-2,6.374572021E-2
9.483652125E0,1.316232911E-2,1.202187538E-2,-6.794530369E-2,7.024483390E-2
9.493614125E0,2.919145213E-2,7.921223044E-3,-8.434974030E-2,8.960895792E-2
9.503576125E0,2.384468505E-2,5.076552629E-3,-6.019708514E-2,6.494635826E-2
9.513538125E0,2.406491037E-2,-4.481890798E-3,6.217344403E-3,2.525594243E-2
9.523500125E0,7.981705181E-3,1.722765148E-2,2.101080000E-2,2.831878016E-2
9.533463125E0,2.270309385E-3,8.403033614E-3,-1.793231405E-2,1.993321765E-2
9.543425125E0,-2.486491911E-3,4.899966717E-4,-2.843500972E-2,2.854772349E-2
9.553387125E0,2.614061711E-2,-2.305557132E-3,-2.006830193E-2,3.303610448E-2
9.563349125E0,2.111415411E-2,1.256625116E-2,2.418393776E-2,3.447580336E-2
9.573311625E0,2.495116554E-4,1.347783208E-2,7.305160403E-2,7.428493162E-2
9.583273625E0,-5.004727808E-3,6.092798710E-3,1.252919443E-1,1.255397977E-1
9.593235625E0,-7.055921922E-3,-2.734742761E-3,1.689523727E-1,1.691217582E-1
9.603197625E0,-5.267112474E-3,1.016947746E-2,1.588425368E-1,1.592548657E-1
9.613159625E0,-1.250377275E-2,2.431564629E-2,1.202093252E-1,1.232796692E-1
9.623122625E0,5.686563402E-3,1.129799008E-2,9.011144042E-2,9.099479808E-2
9.633084625E0,1.674989284E-2,2.191653371E-2,1.631314695E-2,3.204702987E-2
9.643046625E0,-6.247567199E-4,3.213045001E-2,-5.794824600E-2,6.626277502E-2
9.653008625E0,2.926947135E-3,7.422455549E-3,-1.324324179E-1,1.326725487E-1
9.662970625E0,6.289703697E-3,1.096879184E-2,-1.341743765E-1,1.347688320E-1
9.672932625E0,1.174817087E-2,7.124247551E-3,-9.695509471E-2,9.792377041E-2
9.682894625E0,1.495189687E-2,-3.392554522E-3,-5.038889252E-2,5.266981237E-2
9.692856625E0,2.539076652E-2,2.024949253E-2,-2.825082242E-2,4.304465054E-2
9.702818625E0,1.835932982E-2,1.784219384E-2,2.102190971E-2,3.312596505E-2
9.712780625E0,1.792655363E-2,1.137926638E-2,8.929209933E-3,2.303431828E-2
9.722743625E0,8.291648724E-3,-3.171529770E-3,-7.012565732E-3,1.131309497E-2
9.732705625E0,1.155636849E-2,1.027531207E-2,-1.313628159E-2,2.029023373E-2
9.742667625E0,9.861539332E-3,-1.281124949E-3,-2.582642063E-3,1.027430188E-2
9.752629625E0,1.160966952E-2,9.352036715E-3,-3.192645527E-2,3.523554403E-2
9.762591625E0,1.715123111E-2,1.912975073E-2,-4.465467431E-2,5.151846299E-2
9.772553625E0,5.725282934E-3,1.679905057E-2,8.776012883E-3,1.979912541E-2
9.782515625E0,-1.619747258E-3,1.908648133E-2,5.345100626E-2,5.677963914E-2
9.792477625E0,2.346740259E-2,8.317079544E-3,5.194308244E-2,5.760188026E-2
9.802439625E0,1.554627548E-2,-2.471033335E-3,3.565690577E-2,3.897701395E-2
9.812401625E0,1.434388238E-2,-2.061669767E-2,2.545351446E-2,3.575858754E-2
9.822364625E0,-6.631706427E-3,-1.645757318E-2,3.126213849E-2,3.594652344E-2
9.832326625E0,8.914477690E-3,1.746680260E-2,4.523691081E-2,4.930451505E-2
9.842288625E0,-3.012511086E-2,-7.169855833E-3,7.797371708E-2,8.389773353E-2
9.852250625E0,-5.994181763E-3,-6.412641406E-3,1.067730814E-1,1.071332960E-1
9.862212625E0,2.703497616E-2,8.308425665E-2,3.689995073E-2,9.484455705E-2
9.872174625E0,1.529779166E-2,1.731565207E-1,4.867733940E-2,1.805178287E-1
9.882136625E0,-4.416422996E-2,8.216975212E-2,1.077629419E-1,1.425313966E-1
9.892098625E0,2.047565643E-2,9.361333787E-2,5.540295303E-2,1.106896415E-1
9.902060625E0,-2.437015330E-2,-2.270824671E-2,-9.870830923E-3,3.474193638E-2
9.912022625E0,-1.015961942E-2,-1.507377112E-1,-3.571143106E-2,1.552429765E-1
9.921985625E0,5.263407715E-2,1.693996847E-2,-1.706872416E-1,1.794197398E-1
9.931947625E0,3.869235987E-2,8.359530330E-2,-1.882920384E-1,2.096167102E-1
9.941909625E0,-9.315733728E-3,8.315325379E-3,-5.130690537E-2,5.280460274E-2
9.951871625E0,2.507713193E-2,-9.531780124E-2,-3.269032091E-3,9.861557863E-2
9.961833625E0,4.023640396E-2,-1.069075674E-1,-8.779959753E-2,1.440727785E-1
9.971795625E0,1.484537248E-2,-8.997110724E-2,-2.352992669E-2,9.417453304E-2
9.981757625E0,-1.560277420E-2,-4.458618879E-2,8.586387679E-2,9.799989863E-2
9.991719625E0,-4.631508712E-2,-2.362625957E-2,8.627508223E-2,1.007307165E-1
1.000168162E1,-3.307056352E-2,1.540390491E-2,8.384198271E-2,9.143533519E-2
1.001164462E1,-2.081531114E-3,4.246832728E-3,5.760676861E-2,5.780058953E-2
1.002160662E1,1.745259112E-3,1.164414525E-2,3.234380029E-2,3.442024790E-2
1.003156863E1,8.069415700E-3,-1.840528071E-2,3.159323707E-2,3.744332326E-2
1.004153062E1,1.621098741E-2,5.388150752E-2,1.774790749E-2,5.900001005E-2
1.005149262E1,2.021836524E-2,6.492046595E-2,2.902718648E-2,7.393258244E-2
1.006145462E1,2.386127652E-2,1.095551866E-1,8.832094990E-2,1.427315299E-1
1.007141662E1,6.611784780E-3,9.582884789E-2,1.069215276E-1,1.437327271E-1
1.008137863E1,-1.829168941E-3,5.596194685E-2,3.204493448E-2,6.451327910E-2
1.009134062E1,1.080386382E-2,5.855460227E-2,-2.162198022E-2,6.334725683E-2
1.010130262E1,7.487030737E-3,1.881633997E-3,-4.801631168E-2,4.863293496E-2
1.011126562E1,-8.041104670E-3,1.292936325E-2,-7.998172402E-2,8.141808138E-2
1.012122762E1,1.707708567E-2,-2.800114632E-2,-8.408646941E-2,9.025644236E-2
1.013118963E1,2.603171729E-2,-6.103382170E-2,-4.731976211E-2,8.149808331E-2
1.014115162E1,2.846358798E-2,-8.720829785E-2,-3.697135985E-2,9.890573544E-2
1.015111362E1,1.093077580E-2,-9.306603849E-2,-6.787214041E-2,1.157039188E-1
1.016107562E1,4.827168882E-3,-4.571587086E-2,-3.373112530E-3,4.609360363E-2
1.017103762E1,-1.616046610E-2,-2.694981694E-3,7.748218551E-2,7.919540809E-2
1.018099963E1,-1.437015373E-2,1.513551772E-2,5.715236686E-2,6.084388427E-2
1.019096162E1,-1.573719621E-2,3.289175749E-2,9.716654465E-2,1.037827753E-1
1.020092462E1,-9.700576449E-3,4.483644962E-2,1.454885926E-1,1.525494640E-1
1.021088662E1,-5.730910879E-3,4.796003222E-2,1.473305386E-1,1.550461081E-1
1.022084862E1,-7.160347255E-3,5.082049012E-2,9.794729412E-2,1.105787738E-1
1.023081063E1,5.058184150E-3,6.394164205E-2,8.860870600E-3,6.475055090E-2
1.024077262E1,1.932565529E-2,2.869930387E-2,-2.319941282E-2,4.165745732E-2
1.025073462E1,2.057855829E-2,1.683705747E-2,-3.234621227E-2,4.187172093E-2
1.026069662E1,3.215779031E-2,3.434537530E-2,-5.035739064E-2,6.891730606E-2
1.027065862E1,1.833256510E-2,3.169717133E-2,-3.356828034E-2,4.967517547E-2
1.028062063E1,1.459847837E-2,2.536463678E-2,-6.946828410E-2,7.538118376E-2
1.029058262E1,6.423842479E-3,-5.164260864E-3,-3.362836048E-2,3.462371977E-2
1.030054562E1,-7.944817473E-3,-2.606981099E-2,-2.367347583E-2,3.609970398E-2
1.031050762E1,5.298235193E-3,-1.894848704E-2,-2.486864671E-2,3.171066140E-2
1.032046962E1,-3.899033032E-3,-2.241764009E-2,-5.035622120E-3,2.330473205E-2
1.033043163E1,1.424755178E-2,-3.377468705E-2,-3.935614675E-3,3.686748269E-2
1.034039362E1,1.446720609E-2,-3.954413474E-2,-1.412336469E-2,4.441292688E-2
1.035035562E1,-2.850015135E-4,-2.747372746E-2,-1.065779306E-2,2.946990803E-2
1.036031762E1,7.143424591E-4,-1.332229614E-2,5.449239537E-2,5.610182718E-2
1.037027962E1,-1.578837305E-3,7.356966734E-3,1.244345963E-1,1.246618885E-1
1.038024163E1,-9.049980061E-3,1.356437087E-2,1.401893342E-1,1.411344880E-1
1.039020362E1,-7.698329925E-3,4.239231348E-2,1.469627488E-1,1.531483661E-1
1.040016662E1,-1.729956995E-2,5.596311629E-2,1.202702093E-1,1.337761890E-1
1.041012862E1,-3.709478178E-3,-6.046020985E-4,3.113349974E-2,3.135953728E-2
1.042009062E1,2.105865581E-2,7.021979749E-2,-6.286283076E-2,9.657133340E-2
1.043005263E1,2.059156378E-2,5.294419885E-2,-1.063291316E-1,1.205528304E-1
1.044001462E1,2.596319523E-2,5.866920769E-2,-1.018700449E-1,1.203896569E-1
1.044997662E1,-9.566136170E-5,-1.979399443E-2,-9.980612397E-2,1.017500553E-1
1.045993862E1,2.269154103E-2,-4.616376758E-3,-6.973097026E-2,7.347533724E-2
1.046990062E1,1.063832594E-2,-2.725854993E-2,-4.019142151E-2,4.971471498E-2
1.047986263E1,4.783556876E-3,4.459671378E-3,-1.882226028E-2,1.992607756E-2
1.048982562E1,-1.291100619E-2,-2.894956470E-3,4.435756266E-2,4.628896433E-2
1.049978762E1,-1.128272337E-2,3.044645190E-3,5.784197286E-2,5.901070695E-2
1.050974962E1,-4.744490166E-3,-2.354732215E-2,7.136870228E-2,7.530257786E-2
1.051971162E1,-2.109629726E-3,4.893534780E-3,9.352621436E-2,9.367790558E-2
1.052967362E1,1.032794158E-2,-1.342813075E-2,9.653402209E-2,9.800917556E-2
1.053963562E1,1.016118629E-2,-1.005896509E-2,7.627035007E-3,1.620506552E-2
1.054959762E1,2.462435187E-2,5.205191374E-3,-7.436371922E-2,7.850742296E-2
1.055955962E1,1.089651934E-2,2.607214987E-2,-6.689923681E-2,7.262230387E-2
1.056952108E1,7.735601356E-3,-3.187901974E-3,-1.801527143E-2,1.986333939E-2
1.057948308E1,1.157403348E-2,5.179580569E-2,3.254326344E-2,6.225614615E-2
1.058944608E1,8.864972787E-4,2.755851209E-2,4.214841150E-2,5.036612014E-2
1.059940808E1,9.341434068E-3,8.695803702E-2,3.464818798E-2,9.407156596E-2
1.060937008E1,-8.852300774E-3,-5.457206368E-3,1.563194633E-2,1.877503865E-2
1.061933208E1,8.221029891E-3,4.164854765E-2,-4.870496750E-2,6.460929277E-2
1.062929408E1,9.938686034E-3,-4.464933872E-3,-5.025513746E-2,5.142267939E-2
1.063925608E1,2.279863187E-2,1.636811078E-2,-2.088683903E-2,3.498503552E-2
1.064921808E1,3.668214194E-5,-3.805777252E-2,5.736703277E-3,3.848772738E-2
1.065918008E1,1.275330267E-2,6.193370819E-3,1.016940437E-2,1.744767482E-2
1.066914208E1,1.766032716E-3,-2.978688598E-2,3.779172421E-2,4.815175870E-2
1.067910408E1,-1.478473046E-3,1.429995060E-2,5.854985140E-2,6.028896722E-2
1.068906708E1,-1.086007018E-2,-2.053717554E-2,6.532392383E-2,6.933203969E-2
1.069902908E1,5.419194899E-3,-1.963787377E-2,2.998803020E-2,3.625321661E-2
1.070899108E1,1.819999776E-2,1.690371573E-2,-2.034195162E-2,3.210561508E-2
1.071895308E1,-1.029237863E-2,3.685090721E-2,-2.282994188E-2,4.455478275E-2
1.072891508E1,1.222244858E-2,2.194050729E-2,-2.313392401E-2,3.414604735E-2
1.073887708E1,1.438140505E-2,1.530567169E-2,-7.012039483E-2,7.319807489E-2
1.074883908E1,2.077196865E-2,6.173490286E-3,-4.812945530E-2,5.278286778E-2
1.075880108E1,1.425880082E-2,4.850850105E-3,-5.156659484E-3,1.591965089E-2
1.076876308E1,1.223311518E-2,3.272511184E-2,3.174965009E-3,3.508079895E-2
1.077872608E1,-9.424094511E-3,2.028457582E-2,6.274705589E-2,6.661434227E-2
1.078868808E1,-9.659294193E-3,2.676913798E-2,1.121114431E-1,1.156670411E-1
1.079865008E1,-8.051922019E-3,-2.314327955E-3,1.287258679E-1,1.289982117E-1
1.080861208E1,7.457780954E-3,7.007887959E-3,6.126771033E-2,6.211651406E-2
1.081857408E1,-1.243118048E-3,1.480339587E-2,1.880990803E-2,2.396869859E-2
1.082853608E1,1.479393069E-2,7.637048364E-3,2.133999825E-2,2.706622282E-2
1.083849808E1,-1.123792365E-2,-1.566410601E-2,6.785547584E-3,2.043768091E-2
1.084846008E1,5.332295224E-3,-1.405904531E-2,-5.131531075E-2,5.347290196E-2
1.085842208E1,6.464987691E-3,-2.215510011E-3,-4.252161004E-2,4.306729467E-2
1.086838508E1,5.719792033E-3,8.316494823E-3,1.830763221E-3,1.025825526E-2
1.087834708E1,2.461032769E-2,8.962612152E-3,3.517801881E-2,4.385760656E-2
1.088830908E1,2.544358789E-2,2.125579834E-2,3.573701262E-2,4.874750454E-2
1.089827108E1,2.310703595E-2,3.427228510E-2,1.154825091E-2,4.291720792E-2
1.090823308E1,4.197501414E-3,4.157019496E-2,1.641254961E-2,4.488955237E-2
1.091819508E1,-9.583495092E-5,3.806946695E-2,2.333039045E-3,3.814100902E-2
1.092815708E1,-2.153767068E-3,3.365423441E-2,-3.192433566E-3,3.387385184E-2
1.093811908E1,1.332790582E-2,1.697329760E-2,1.060611829E-3,2.160673048E-2
1.094808108E1,2.023188693E-2,2.051495612E-2,-1.308906533E-2,3.164674239E-2
1.095804308E1,2.316453966E-2,6.427259445E-3,-4.360276021E-2,4.979062422E-2
1.096800608E1,2.455004198E-2,5.877036452E-3,-5.368328691E-2,5.932233485E-2
1.097796808E1,-1.065042922E-3,-7.489698529E-3,-3.948814765E-2,4.020626450E-2
1.098793008E1,6.279493910E-3,-1.316617548E-2,-2.870756306E-2,3.220099994E-2
1.099789208E1,-8.647040664E-3,-1.373394012E-2,-8.840990067E-3,1.848122098E-2
1.100785408E1,-1.301506151E-2,-9.197670221E-3,9.380614981E-3,1.849283377E-2
1.101781608E1,1.192626427E-2,-1.918822289E-2,5.807271861E-2,6.231263374E-2
1.102777808E1,6.130513251E-3,-2.718955278E-3,8.945538282E-2,8.970641798E-2
1.103774008E1,6.091757175E-3,8.603008389E-3,6.649629056E-2,6.732665087E-2
1.104770208E1,2.147988831E-2,-8.407126665E-3,5.082567953E-2,5.581500766E-2
1.105766508E1,-1.607673671E-3,3.870272040E-3,5.693309627E-2,5.708713578E-2
1.106762708E1,1.959045650E-2,4.180759192E-4,-8.547021300E-3,2.137784710E-2
1.107758908E1,1.042772796E-2,2.827362657E-2,-2.529154658E-2,3.934206144E-2
1.108755108E1,-2.699709716E-3,3.111244977E-2,4.570885420E-2,5.535857942E-2
1.109751308E1,7.474491200E-3,3.016753972E-2,3.122405849E-2,4.405553654E-2
1.110747508E1,1.731943906E-2,2.546637833E-2,-4.940897226E-4,3.080168046E-2
1.111743708E1,9.419083265E-3,2.988687336E-2,9.196646959E-3,3.265765828E-2
1.112739908E1,4.535338003E-3,2.306024909E-2,2.822567940E-2,3.672918943E-2
1.113736108E1,1.757787685E-2,5.306932926E-3,-6.783793420E-3,1.957460459E-2
1.114732308E1,7.710599941E-3,-2.096109867E-2,-2.745625891E-2,3.539303833E-2
1.115728608E1,-1.227999341E-2,-1.554189920E-3,1.020689964E-2,1.604352033E-2
1.116724808E1,1.087557900E-2,-3.076804876E-3,-1.947590590E-2,2.251790082E-2
1.117721008E1,7.974345912E-3,6.065901518E-3,-9.269664064E-3,1.364961632E-2
1.118717208E1,-4.552057385E-4,8.183178306E-3,2.718538664E-2,2.839395827E-2
1.119713408E1,4.827013565E-4,4.003003836E-3,2.691941142E-2,2.721969419E-2
1.120709608E1,1.551897629E-2,2.814849615E-3,1.754332803E-2,2.359089574E-2
1.121705808E1,-4.567018035E-3,4.450315833E-3,1.391111076E-2,1.530300517E-2
1.122702008E1,-2.873787722E-3,-6.617293954E-3,-2.090774283E-2,2.211743532E-2
1.123698208E1,-1.070487228E-2,-3.040552139E-4,-2.072545588E-2,2.332876468E-2
1.124694408E1,5.534846429E-4,5.713899136E-3,9.508595914E-3,1.110713216E-2
1.125690708E1,-2.169677890E-3,1.261069000E-2,2.991077386E-2,3.253292789E-2
1.126686908E1,2.049390157E-2,1.412277997E-2,1.344618402E-2,2.828873946E-2
1.127683108E1,2.302882944E-2,-1.878710389E-3,1.059398532E-2,2.541828207E-2
1.128679308E1,2.317938154E-2,5.906272531E-3,2.720490173E-2,3.622532901E-2
1.129675508E1,8.019776037E-3,3.120542049E-2,-1.758316219E-2,3.670507688E-2
1.130671708E1,-8.829067228E-3,2.538568676E-2,-1.297913767E-2,2.984700211E-2
1.131667908E1,-2.182569173E-3,1.717502654E-2,-9.015310183E-3,1.951975826E-2
1.132664108E1,1.393642281E-2,-9.421033859E-3,-9.701992571E-4,1.684995686E-2
1.133660308E1,6.519097276E-3,8.069157600E-5,3.541658521E-3,7.419466659E-3
1.134656608E1,-8.780137911E-3,-6.896206141E-3,4.860322595E-2,4.986904905E-2
1.135652808E1,1.523651923E-3,3.314786553E-3,2.014555827E-2,2.047322258E-2
1.136649008E1,-8.911750512E-3,-1.176108956E-2,-3.632290363E-3,1.519658048E-2
1.137645208E1,6.137685226E-3,-8.577865362E-3,1.094321027E-2,1.519884223E-2
1.138641408E1,-2.282282473E-3,6.582795382E-3,2.354454473E-2,2.455376946E-2
1.139637608E1,-1.734375525E-3,1.184821308E-2,2.432500184E-2,2.711261562E-2
1.140633808E1,2.594610583E-3,1.362284303E-2,4.879377209E-2,5.072618703E-2
1.141630008E1,2.033094241E-2,2.582598209E-2,6.193078458E-2,7.011241438E-2
1.142626208E1,4.780765744E-3,1.268787324E-2,5.471722081E-2,5.637208620E-2
1.143622408E1,1.202884636E-2,9.528622627E-3,4.096559286E-2,4.374548654E-2
1.144618708E1,-1.050196476E-3,2.164639235E-3,5.960066915E-3,6.427361300E-3
1.145614908E1,6.264816485E-3,2.024832308E-2,4.413186014E-4,2.119993574E-2
1.146611108E1,1.457522655E-2,2.262872458E-3,-1.546420433E-2,2.137052728E-2
1.147607308E1,1.208363203E-2,-7.611320615E-3,-2.776031412E-2,3.121828638E-2
1.148603508E1,1.096648037E-2,-1.025192320E-2,-4.788467623E-2,5.018274443E-2
1.149599708E1,1.354631759E-2,-5.549007654E-4,-6.355674908E-2,6.498669855E-2
1.150595908E1,7.022675020E-3,-7.118400335E-3,-5.211725637E-2,5.306786221E-2
1.151592108E1,-4.338496970E-3,9.723334908E-3,-2.773663290E-2,2.971004211E-2
1.152588308E1,2.313389203E-2,-2.352627218E-2,-3.356243312E-2,4.706484208E-2
1.153584608E1,1.047460619E-2,-3.081307232E-2,-4.680060245E-2,5.700402785E-2
1.154580808E1,1.279964643E-3,-1.125004292E-2,-2.123072840E-2,2.406128849E-2
1.155577008E1,1.208501161E-2,2.959860563E-2,-2.333433732E-2,3.958050352E-2
1.156573208E1,2.275160747E-4,1.296970904E-2,9.546164274E-3,1.610572471E-2
1.157569421E1,-1.316581917E-2,-1.287556887E-3,3.565157019E-2,3.802671500E-2
1.158565621E1,1.299603065E-3,4.382488132E-2,1.046862102E-1,1.134967479E-1
1.159561821E1,-1.043700585E-3,3.181820869E-2,8.389073387E-2,8.972816138E-2
1.160558021E1,-1.020119404E-2,1.269488990E-2,6.301368892E-2,6.508417305E-2
1.161554221E1,9.126516916E-3,6.977482438E-3,4.983289540E-2,5.113996515E-2
1.162550421E1,-2.228639751E-2,2.289886594E-2,6.890870556E-2,7.595690408E-2
1.163546721E1,1.946768782E-2,4.575680137E-2,-9.888884202E-2,1.106873020E-1
1.164542921E1,-1.094623895E-2,3.425649762E-2,-8.746323645E-2,9.456820558E-2
1.165539121E1,-4.555529170E-4,-8.180839419E-3,-3.730640531E-2,3.819556962E-2
1.166535321E1,-4.426831040E-3,-4.505104244E-2,6.270480976E-3,4.570024277E-2
1.167531521E1,1.574756588E-2,-7.504901290E-3,-2.625399828E-2,3.152113260E-2
1.168527721E1,2.618391849E-2,2.121311367E-2,2.097937122E-2,3.969543797E-2
1.169523921E1,-2.896454819E-3,1.409178972E-3,9.028853796E-2,9.034597569E-2
1.170520121E1,7.266056235E-3,-2.474892497E-2,1.114659836E-1,1.144114084E-1
1.171516321E1,2.628532200E-2,-1.562376022E-2,4.102450356E-2,5.116668768E-2
1.172512621E1,6.122496170E-3,1.518404961E-2,3.680456802E-2,4.028171482E-2
1.173508821E1,-7.724477942E-3,1.436251581E-2,9.666207612E-2,9.802808974E-2
1.174505021E1,-2.493586228E-3,1.635115385E-2,2.542895615E-2,3.033496358E-2
1.175501221E1,7.737054024E-5,2.387944400E-2,-1.362708226E-2,2.749420308E-2
1.176497421E1,-1.456514467E-2,3.154455900E-2,2.843435191E-2,4.489671492E-2
1.177493621E1,6.691434821E-3,3.844193459E-2,2.038573265E-2,4.402426297E-2
1.178489821E1,2.062931943E-2,3.711169302E-2,-3.007464208E-2,5.203201587E-2
1.179486021E1,5.960912020E-3,3.861793578E-2,-2.147916198E-2,4.458959335E-2
1.180482221E1,-3.798387833E-3,2.321753919E-2,-1.685934998E-2,2.894338539E-2
1.181478521E1,1.481433199E-3,-1.083722949E-2,-6.280552804E-2,6.375087874E-2
1.182474721E1,1.245667068E-2,-2.522254944E-2,-9.095051587E-2,9.520158602E-2
1.183470921E1,2.976723842E-2,-6.900883913E-3,-8.526453719E-2,9.057456587E-2
1.184467121E1,1.538975739E-2,-1.304747701E-2,-4.073287368E-2,4.545600386E-2
1.185463321E1,2.798093688E-3,-1.255923450E-2,-2.137201175E-2,2.494647442E-2
1.186459521E1,2.839389648E-3,-2.938810587E-3,3.615552709E-2,3.638572357E-2
1.187455721E1,6.500733364E-4,2.025417030E-2,1.163215846E-1,1.180735578E-1
1.188451921E1,6.704458580E-3,-6.919010282E-3,1.123361224E-1,1.127485116E-1
1.189448121E1,1.419119239E-2,-2.202236831E-2,3.509498835E-2,4.379535197E-2
1.190444321E1,1.857399572E-2,1.720718622E-2,-9.780491441E-3,2.714292887E-2
1.191440621E1,-8.751322101E-3,3.981369138E-2,-7.873129696E-3,4.151748825E-2
1.192436821E1,-4.750638879E-3,4.312964737E-2,-3.041019917E-2,5.298599122E-2
1.193433021E1,-1.146444387E-2,3.599604428E-2,-2.447936833E-2,4.501542125E-2
1.194429221E1,-1.932418435E-2,1.000517070E-2,1.090564191E-2,2.434051288E-2
1.195425421E1,3.733584238E-3,7.052326798E-3,3.101290092E-2,3.202303839E-2
1.196421621E1,-1.336833383E-3,1.499810815E-2,2.311287403E-2,2.758505605E-2
1.197417821E1,1.333800597E-2,2.888816893E-2,5.650917314E-2,6.485148692E-2
1.198414021E1,5.621106564E-3,8.295444846E-3,6.170435116E-2,6.251270428E-2
1.199410221E1,1.503981524E-3,2.199137807E-3,4.018718228E-2,4.027539928E-2
1.200406521E1,5.230512558E-3,2.819527388E-3,1.587826028E-2,1.695367647E-2
1.201402721E1,6.822503814E-3,-1.347432375E-2,9.965336546E-3,1.809452656E-2
1.202398921E1,1.344494606E-2,-6.856445074E-3,5.462468863E-3,1.605041992E-2
1.203395121E1,7.809787905E-3,2.610197067E-3,7.491964325E-3,1.113262976E-2
1.204391321E1,6.115570874E-3,-5.440834165E-3,1.031726584E-2,1.316999840E-2
1.205387521E1,8.183479803E-3,-9.418694973E-3,-3.338760138E-3,1.291620981E-2
1.206383721E1,4.774845438E-4,1.701188922E-2,-6.578702331E-3,1.824586777E-2
1.207379921E1,3.202066397E-2,2.175105751E-2,-1.624575779E-2,4.198042484E-2
1.208376121E1,1.002190379E-2,2.411976457E-2,-3.754160956E-2,4.573372985E-2
1.209372321E1,-7.553551951E-4,6.028479338E-4,-3.200129963E-2,3.201588926E-2
1.210368621E1,-3.859482100E-4,1.587869883E-2,-2.863732338E-2,3.274718801E-2
1.211364821E1,1.742397174E-3,4.208591938E-2,-5.260813013E-3,4.244922510E-2
1.212361021E1,6.217253041E-3,2.203581691E-2,5.569472909E-5,2.289616920E-2
1.213357221E1,3.071980923E-4,2.105582356E-3,3.589254856E-2,3.595556827E-2
1.214353421E1,2.420020946E-3,-1.679612696E-2,3.884656191E-2,4.239129338E-2
1.215349621E1,2.211655873E-2,-1.565299630E-3,-1.885376215E-2,2.910423819E-2
1.216345821E1,6.037958222E-3,1.755100250E-2,1.856549442E-2,2.625208966E-2
1.217342021E1,1.322042211E-2,2.498047471E-2,4.651576996E-2,5.442904126E-2
1.218338221E1,1.434417930E-3,1.741885543E-3,-1.134301364E-2,1.156527901E-2
1.219334521E1,-1.122211789E-2,-2.281758964E-2,-1.976183474E-2,3.220416804E-2
1.220330721E1,6.132016168E-3,-1.200901151E-2,-2.051948771E-2,2.455335732E-2
1.221326921E1,1.144347155E-2,6.296866536E-3,-1.617222905E-2,2.078808702E-2
1.222323121E1,1.369665499E-2,2.268719673E-4,-6.806159019E-4,1.371543170E-2
1.223319321E1,2.710586451E-3,5.684078336E-3,-7.806617618E-3,1.002992044E-2
1.224315521E1,1.313446804E-2,1.940456986E-2,-3.125439093E-2,3.906262324E-2
1.225311721E1,-1.496608551E-3,1.533958554E-2,-1.979874529E-2,2.509049694E-2
1.226307921E1,7.465391471E-3,1.366435826E-2,-9.192407727E-3,1.808167902E-2
1.227304121E1,1.347808789E-2,4.266362429E-2,2.923607826E-2,5.344709499E-2
1.228300421E1,-1.525680176E-3,1.082728922E-2,8.863384902E-2,8.930575057E-2
1.229296621E1,-2.510821810E-3,-2.452790022E-2,7.875439346E-2,8.252379417E-2
1.230292821E1,1.615113339E-2,-1.936714768E-2,6.995725751E-2,7.436372367E-2
1.231289021E1,1.794921616E-3,3.499383152E-2,5.205242537E-2,6.274746987E-2
1.232285221E1,-5.690469160E-3,3.889567852E-2,2.920684218E-2,4.897238893E-2
1.233281421E1,6.453946503E-3,4.670112669E-2,1.523024261E-2,4.954401023E-2
1.234277621E1,1.242791883E-2,4.085449576E-3,-1.530859530E-2,2.013695992E-2
1.235273821E1,2.173177540E-2,-2.008869410E-2,-2.937173367E-2,4.169561645E-2
1.236270021E1,7.436488867E-3,-3.062946975E-2,1.795446038E-2,3.627434950E-2
1.237266221E1,2.618392305E-3,-1.276447177E-2,7.298363015E-2,7.413769613E-2
1.238262521E1,4.887952516E-4,2.508163154E-2,1.271517243E-1,1.296028092E-1
1.239258721E1,1.830867831E-2,2.122422338E-2,1.401699653E-1,1.429450752E-1
1.240254921E1,-6.161293359E-3,4.867222309E-3,6.505144358E-2,6.552359652E-2
1.241251121E1,2.228291659E-4,-2.466940284E-2,5.592277050E-3,2.529629720E-2
1.242247321E1,1.877080478E-2,-9.107038379E-3,-7.600276686E-2,7.881435041E-2
1.243243521E1,8.388082101E-3,3.960728467E-2,-7.958886422E-2,8.929436840E-2
1.244239721E1,-2.020948478E-3,4.214439154E-2,-5.251793683E-2,6.736740799E-2
1.245235921E1,3.704252229E-3,3.724676371E-3,-3.846123040E-2,3.881830679E-2
1.246232121E1,1.971529456E-2,-9.050905108E-3,-8.432562053E-2,8.707136154E-2
1.247228421E1,1.976491367E-2,-1.427539229E-2,-8.388576373E-2,8.735708325E-2
1.248224621E1,5.734661319E-3,1.183476448E-2,-8.694400370E-2,8.793297317E-2
1.249220821E1,2.543502264E-3,6.254942000E-2,-6.513915181E-2,9.034383457E-2
1.250217021E1,-2.398977365E-2,6.943919420E-2,-2.405317940E-2,7.730372805E-2
1.251213221E1,5.359443664E-3,5.132101178E-2,2.941200636E-2,5.939390545E-2
1.252209421E1,3.068365243E-2,-2.726849020E-2,-1.085754856E-2,4.246108153E-2
1.253205621E1,9.098792891E-3,-8.640255153E-2,5.633353740E-3,8.706275678E-2
1.254201821E1,1.042027733E-2,-3.655971587E-2,-5.455890745E-3,3.840523073E-2
1.255198021E1,7.965967949E-3,7.753466427E-2,-2.378574237E-2,8.149136365E-2
1.256194321E1,-2.025894400E-2,7.906371117E-2,7.075364828E-2,1.080165449E-1
1.257190533E1,-2.875254094E-2,1.375265121E-2,1.486012848E-1,1.519808733E-1
1.258186733E1,-3.830515542E-3,-2.517928004E-2,1.366113498E-1,1.389652111E-1
1.259182933E1,7.824967825E-3,-3.799052954E-2,5.547480069E-2,6.769020585E-2
1.260179133E1,-1.347489020E-2,6.200387478E-3,1.355910838E-2,2.009643975E-2
1.261175333E1,-1.424819817E-2,9.511665702E-3,4.095740676E-2,4.439585683E-2
1.262171533E1,-9.682765282E-3,3.178546429E-2,7.438476920E-2,8.146880122E-2
1.263167733E1,-6.227270965E-3,1.943614483E-2,4.210989296E-2,4.679514628E-2
1.264163933E1,-9.568091333E-3,1.410582304E-2,3.005761206E-2,3.455405415E-2
1.265160133E1,-2.950911126E-2,-2.880279958E-2,2.168439925E-2,4.658972077E-2
1.266156433E1,-2.139823743E-2,-2.485008180E-2,-4.935093865E-2,5.925306976E-2
1.267152633E1,-1.215160591E-2,2.704746544E-2,-3.222751379E-2,4.379314511E-2
1.268148833E1,3.934970568E-3,3.423603237E-2,-3.101465508E-2,4.636268689E-2
1.269145033E1,-2.326642740E-2,3.746895790E-3,-4.073930562E-2,4.706439093E-2
1.270141233E1,3.014563550E-2,-1.420288682E-3,-4.472520635E-2,5.395480185E-2
1.271137433E1,4.266132651E-2,3.182639480E-3,-8.326552033E-2,9.361231143E-2
1.272133633E1,4.835492028E-2,3.270464659E-2,-8.390155122E-2,1.022118512E-1
1.273129833E1,3.907269384E-2,1.171782017E-3,8.365026712E-3,3.997526921E-2
1.274126033E1,1.555106746E-2,5.816810131E-3,9.035234571E-2,9.186521297E-2
1.275122333E1,3.286104590E-2,-2.613179147E-2,9.984997809E-2,1.083177593E-1
1.276118533E1,-2.717635087E-3,2.108096659E-2,1.350706816E-2,2.518399458E-2
1.277114733E1,2.201150528E-2,8.132132113E-2,1.902567029E-2,8.636920612E-2
1.278110933E1,1.311954394E-2,6.011990190E-2,2.001794279E-2,6.470891029E-2
1.279107133E1,4.743868900E-3,-1.932972550E-2,2.182005465E-2,2.953400354E-2
1.280103333E1,6.311658164E-4,-1.346613765E-2,1.220664740E-2,1.818618910E-2
1.281099533E1,2.327412014E-2,-1.985655963E-2,-2.517109394E-2,3.961756680E-2
1.282095733E1,2.839475072E-2,-3.457458615E-3,-3.689695403E-2,4.668619823E-2
1.283091933E1,1.510674759E-2,4.141348958E-2,7.330069542E-3,4.468803935E-2
1.284088233E1,2.345691872E-2,7.822989821E-3,4.090068877E-2,4.779427316E-2
1.285084433E1,1.040889810E-2,-3.315371275E-2,8.398779765E-2,9.089259586E-2
1.286080633E1,9.877226315E-3,-1.818951845E-2,5.478080928E-2,5.856069712E-2
1.287076833E1,-2.264717985E-3,-1.221015573E-2,3.000717983E-3,1.277580365E-2
1.288073033E1,-3.213770878E-2,1.158684254E-2,1.254754007E-2,3.639406555E-2
1.289069233E1,-6.453133374E-4,1.712941825E-2,7.801208943E-3,1.883327534E-2
1.290065433E1,9.033171600E-4,1.986825407E-2,-5.440490641E-2,5.792630959E-2
1.291061633E1,-9.714660016E-3,1.248555958E-2,-6.781293735E-2,6.963374390E-2
1.292057833E1,1.392656020E-2,-3.208367229E-3,-7.868758902E-2,7.997486708E-2
1.293054133E1,7.725140322E-3,-9.423957467E-3,-6.088946857E-2,6.209682882E-2
1.294050333E1,1.119328838E-2,1.283522308E-2,-2.488633454E-2,3.015563468E-2
1.295046533E1,7.342056334E-3,3.704620421E-2,-1.079396009E-2,3.927895890E-2
1.296042733E1,1.411509636E-2,4.805826545E-2,1.689436018E-2,5.286068699E-2
1.297038933E1,8.397492464E-3,3.989438295E-2,3.846123040E-2,5.604771106E-2
1.298035133E1,7.631223989E-3,-5.122160912E-3,5.111782104E-3,1.051676891E-2
1.299031333E1,8.920571585E-3,2.436242402E-2,5.664724052E-2,6.230581161E-2
1.300027533E1,4.293859874E-2,1.669087708E-2,3.698246956E-2,5.907632092E-2
1.301023733E1,9.505297719E-3,-3.527976036E-2,-1.366786659E-4,3.653807407E-2
1.302019933E1,8.692146451E-3,-4.995334804E-2,-1.027838185E-2,5.173524450E-2
1.303016233E1,6.170036774E-3,2.026060224E-3,-2.700193025E-2,2.777190147E-2
1.304012433E1,1.373498166E-2,4.386990488E-2,-2.515530646E-2,5.240236367E-2
1.305008633E1,1.185732194E-2,3.080371678E-2,7.850471735E-3,3.392779034E-2
1.306004833E1,1.322989186E-2,6.649453640E-3,-1.725688756E-2,2.273863322E-2
1.307001033E1,-2.675347840E-3,-3.859162331E-3,5.744889379E-5,4.696160169E-3
1.307997233E1,-3.841392277E-3,3.266839385E-3,2.081367575E-2,2.141582668E-2
1.308993433E1,-2.966593998E-2,-3.396062851E-3,-2.395896614E-2,3.828359042E-2
1.309989633E1,-2.933776500E-3,9.701115489E-3,5.507638603E-3,1.153485021E-2
1.310985833E1,2.233624502E-2,3.290462136E-2,1.045840301E-1,1.118903092E-1
1.311982133E1,2.362656106E-2,2.788887978E-2,1.112105334E-1,1.170631741E-1
1.312978333E1,5.176014681E-3,9.346189499E-3,6.948260978E-2,7.029918526E-2
1.313974533E1,1.512221530E-2,-4.735659957E-3,3.748818062E-2,4.069977343E-2
1.314970733E1,2.521648752E-2,-1.312582970E-2,2.447922215E-2,3.751520978E-2
1.315966933E1,2.704554683E-2,-5.356049538E-4,-6.452402472E-3,2.780974602E-2
1.316963133E1,4.425063170E-4,-7.928824425E-4,-2.597223558E-2,2.598810295E-2
1.317959333E1,-8.109293254E-3,8.853269219E-3,-1.610688642E-2,2.008912151E-2
1.318955533E1,2.481925601E-2,-1.669380069E-3,-3.210603788E-2,4.061502145E-2
1.319951733E1,2.899911985E-2,-5.269510746E-3,-2.153836504E-2,3.650503888E-2
1.320947933E1,-2.198353458E-2,-3.480847478E-3,1.252020434E-2,2.553718090E-2
1.321944233E1,-8.195877727E-4,2.186273932E-3,7.651666403E-3,7.999969785E-3
1.322940433E1,8.046682365E-3,8.452734947E-3,-6.607353687E-4,1.168907167E-2
1.323936633E1,-5.897798636E-3,1.471100986E-2,2.344923511E-2,2.830308229E-2
1.324932833E1,-1.050017862E-2,2.004483998E-2,3.795720041E-2,4.419047888E-2
1.325929033E1,1.909677335E-2,2.252932191E-2,1.479630612E-2,3.303313144E-2
1.326925233E1,2.147201284E-2,-3.740463853E-3,-4.929202795E-3,2.234581495E-2
1.327921433E1,-2.983034723E-3,-1.022970378E-2,-3.534473754E-2,3.691606436E-2
1.328917633E1,1.161807946E-2,3.451202095E-2,-3.862254046E-2,5.308257710E-2
1.329913833E1,1.366220210E-2,4.664674759E-2,-1.492626049E-2,5.084651491E-2
1.330910133E1,1.321103002E-2,3.049381435E-2,1.547633730E-2,3.665952869E-2
1.331906333E1,1.062928332E-2,8.601254225E-4,7.525366545E-4,1.069054680E-2
1.332902533E1,1.085570304E-2,-1.215402246E-2,3.680091351E-4,1.630036751E-2
1.333898733E1,1.688576752E-2,3.280287981E-3,-1.418541826E-2,2.229608767E-2
1.334894933E1,-1.374263786E-2,2.829467654E-2,1.707196936E-2,3.578967664E-2
1.335891133E1,1.093086717E-2,2.273046613E-2,7.107933819E-2,7.542168299E-2
1.336887333E1,-8.477000892E-3,2.338886261E-6,1.240504342E-1,1.243397353E-1
1.337883533E1,-8.042068547E-3,-2.191244066E-2,1.164068808E-1,1.187240154E-1
1.338879733E1,-8.919822411E-3,-8.405372500E-3,8.301226281E-2,8.391215225E-2
1.339876033E1,3.628092245E-3,-6.255936027E-3,-3.604347982E-2,3.676183110E-2
1.340872233E1,2.921552164E-4,-1.353630424E-3,-7.653837182E-2,7.655089830E-2
1.341868433E1,2.957434882E-3,1.540916741E-2,-9.502310157E-3,1.834346640E-2
1.342864633E1,-1.277541703E-2,-2.713108063E-4,-2.489342429E-2,2.798155576E-2
1.343860833E1,-5.135152694E-3,-4.830384851E-3,-4.481539965E-2,4.536653454E-2
1.344857033E1,-3.556888690E-4,-7.548755407E-4,-1.402360388E-1,1.402385216E-1
1.345853233E1,2.713013959E-2,2.215743899E-2,-1.692183479E-1,1.728058038E-1
1.346849433E1,2.968868473E-2,3.889333963E-2,-1.297696690E-1,1.386876954E-1
1.347845633E1,-1.927406732E-3,3.050726295E-2,-7.200188264E-3,3.140462864E-2
1.348841933E1,1.094199058E-2,9.482429624E-3,9.421969414E-2,9.532572786E-2
1.349838133E1,4.136057228E-2,3.637552857E-3,1.239726663E-1,1.307407768E-1
1.350834333E1,2.119911232E-2,9.832093120E-3,9.311983287E-2,9.600716480E-2
1.351830533E1,-9.571800660E-4,5.475917459E-3,8.637799323E-2,8.655668420E-2
1.352826733E1,4.050877914E-3,9.747893214E-3,4.340329707E-2,4.466852617E-2
1.353822933E1,8.561310433E-3,5.802192092E-3,-5.421538353E-2,5.519301841E-2
1.354819133E1,8.751591621E-3,5.237935781E-3,-1.252298907E-1,1.256445457E-1
1.355815333E1,-1.582393143E-2,1.018701911E-2,-1.308169053E-1,1.321636670E-1
1.356811533E1,-1.469881293E-2,9.240939617E-3,-6.523095310E-2,6.750205411E-2
1.357807871E1,-9.584938623E-3,4.721626639E-3,3.316833079E-4,1.068994015E-2
1.358804071E1,-7.400957895E-3,1.064661026E-2,7.103548408E-2,7.220917176E-2
1.359800271E1,1.245125287E-2,-5.933754444E-3,8.540143512E-2,8.650808205E-2
1.360796471E1,9.288635538E-3,-8.503021002E-3,7.525351927E-2,7.629988387E-2
1.361792671E1,-2.697576396E-3,7.869182825E-3,8.635160767E-2,8.675137522E-2
1.362788871E1,-2.137065958E-3,7.893741131E-4,1.176588428E-1,1.176808967E-1
1.363785071E1,-4.746586941E-3,1.199907124E-2,1.903788366E-1,1.908156420E-1
1.364781271E1,1.367479188E-2,2.365958869E-2,2.070136535E-1,2.088095515E-1
1.365777471E1,2.279488600E-2,2.174228668E-2,1.119272558E-1,1.162757260E-1
1.366773771E1,1.022824198E-3,-5.619174242E-4,4.006738745E-2,4.008437922E-2
1.367769971E1,-5.017290185E-3,-2.789121866E-3,-2.942786694E-2,2.998252414E-2
1.368766171E1,-6.652701586E-3,1.526181757E-2,-1.174582102E-1,1.186322581E-1
1.369762371E1,-2.281853068E-3,3.612994552E-3,-9.745853998E-2,9.755217885E-2
1.370758571E1,-7.984432359E-3,-8.241650462E-3,-7.037825704E-2,7.130760847E-2
1.371754771E1,-6.661234866E-3,-5.760092139E-3,-1.211752852E-1,1.214948577E-1
1.372750971E1,-1.939534223E-2,5.660104752E-3,-9.381857514E-2,9.596948019E-2
1.373747171E1,-1.013199133E-3,5.008140206E-3,-7.614302695E-2,7.631427516E-2
1.374743371E1,2.262401026E-2,2.339704871E-2,-3.934649885E-2,5.106285049E-2
1.375739571E1,2.895479521E-2,1.931920052E-2,-1.656589285E-3,3.484761057E-2
1.376735871E1,3.707506570E-2,1.985363603E-2,7.751580700E-3,4.276463917E-2
1.377732071E1,1.505613720E-2,-1.063842416E-2,4.319805980E-2,4.696738982E-2
1.378728271E1,2.398512786E-2,1.840645015E-2,5.811138332E-2,6.550585193E-2
1.379724471E1,1.738183981E-2,3.168606162E-2,6.081155442E-2,7.074022906E-2
1.380720671E1,5.919849034E-3,2.592538476E-2,-3.807268292E-4,2.659539698E-2
1.381716871E1,1.922844533E-2,-5.691679716E-3,-6.423992313E-2,6.729707313E-2
1.382713071E1,-1.429692649E-2,1.452214479E-2,-3.691054881E-2,4.216258305E-2
1.383709271E1,-8.827221701E-3,1.037237585E-2,-7.417076111E-2,7.541092644E-2
1.384705571E1,-8.846745919E-4,-3.485115945E-2,-1.200462610E-1,1.250059628E-1
1.385701771E1,1.751601971E-3,-5.763600469E-3,-3.819700934E-2,3.866909260E-2
1.386697971E1,3.670685557E-3,2.242407203E-2,2.677315794E-2,3.511573614E-2
1.387694171E1,1.074548302E-2,-7.182134986E-3,4.772373162E-2,4.944292698E-2
1.388690371E1,1.050616745E-3,3.598961234E-3,5.912002802E-2,5.923878823E-2
1.389686571E1,1.723347585E-2,-1.515539825E-2,7.579745650E-2,7.919553774E-2
1.390682771E1,1.363339086E-2,-4.148599505E-3,4.021130204E-2,4.266179832E-2
1.391678971E1,9.615513165E-3,3.108438313E-2,3.811280943E-2,5.011270509E-2
1.392675171E1,8.683096971E-3,3.232457757E-2,2.792630196E-2,4.359074247E-2
1.393671371E1,-1.672294540E-3,-2.670423388E-3,3.416403852E-2,3.430902590E-2
1.394667671E1,1.061172796E-2,-3.888398409E-3,7.824510098E-2,7.905709481E-2
1.395663871E1,9.842686630E-3,1.193299770E-2,8.671932444E-3,1.773350858E-2
1.396660071E1,-7.610923187E-3,1.459348083E-2,-2.090379596E-2,2.660572344E-2
1.397656271E1,-1.292878310E-2,2.923490882E-2,-4.588967934E-3,3.229383769E-2
1.398652471E1,-3.073751990E-2,2.160136878E-2,-4.186087467E-2,5.624719630E-2
1.399648671E1,5.534252571E-4,-3.086160421E-3,-1.382581450E-2,1.417687597E-2
1.400644871E1,-8.653609646E-3,1.053726733E-2,9.658942446E-3,1.670970173E-2
1.401641071E1,-1.241980582E-3,1.580385447E-2,-4.405876994E-3,1.645345203E-2
1.402637371E1,2.566384063E-3,2.753629267E-2,-1.444320738E-2,3.119999969E-2
1.403633571E1,9.220561157E-3,5.143795609E-3,-4.187337309E-4,1.056658503E-2
1.404629771E1,9.103785865E-3,-1.530625641E-2,1.212639436E-3,1.785023520E-2
1.405625971E1,2.248652303E-2,-3.258010089E-2,-3.567210853E-2,5.328795379E-2
1.406622171E1,8.806943740E-3,-4.317584038E-3,-2.228848971E-2,2.435119224E-2
1.407618371E1,1.041927691E-2,2.712815702E-2,-3.444010019E-4,2.906229252E-2
1.408614571E1,-4.804250537E-3,2.965415418E-2,8.868647397E-2,9.363621280E-2
1.409610771E1,3.907584585E-4,7.235929370E-3,1.260456504E-1,1.262537815E-1
1.410606971E1,2.235701177E-3,-6.707341075E-3,2.957112372E-2,3.040457436E-2
1.411603171E1,1.333140044E-2,-1.018175662E-2,3.245431267E-2,3.653322893E-2
1.412599471E1,-9.612749442E-3,1.070742130E-2,2.298883997E-2,2.712085150E-2
1.413595671E1,-1.185914463E-2,4.191927373E-2,-1.575532258E-2,4.632596476E-2
1.414591871E1,-3.390453178E-3,2.212995708E-2,-4.253089249E-2,4.806357237E-2
1.415588071E1,8.691940885E-3,1.042558551E-2,4.534354940E-2,4.733159771E-2
1.416584271E1,1.820046371E-3,1.415026188E-3,1.392740987E-2,1.411692649E-2
1.417580471E1,-5.873281443E-3,6.165888906E-3,8.208248243E-3,1.182746634E-2
1.418576671E1,3.140018302E-2,1.552845061E-2,7.279783487E-3,3.577847845E-2
1.419572871E1,-3.134692311E-3,1.666281044E-2,-1.615359105E-2,2.341824186E-2
1.420569071E1,1.088495739E-4,1.002797484E-2,-7.697201595E-3,1.264195555E-2
1.421565371E1,9.728807537E-3,7.484436035E-4,-9.393559255E-2,9.444101551E-2
1.422561571E1,3.289442528E-3,-1.222009599E-2,-6.188349523E-2,6.316421582E-2
1.423557771E1,9.791820422E-3,-3.003129959E-3,1.876298413E-3,1.041244604E-2
1.424553971E1,1.631099992E-2,-1.268845797E-3,-2.498222888E-4,1.636218504E-2
1.425550171E1,1.641663810E-2,3.203514040E-2,3.115747333E-2,4.760823847E-2
1.426546371E1,3.564626201E-2,2.565348923E-2,3.835831940E-2,5.831053226E-2
1.427542571E1,1.359325063E-2,-7.403744459E-3,3.660349689E-2,3.974176493E-2
1.428538771E1,-7.915270762E-3,5.379438400E-5,7.326926664E-2,7.369558900E-2
1.429534971E1,9.929992869E-3,1.480982780E-2,3.306483507E-2,3.756619593E-2
1.430531271E1,1.001728997E-2,1.205695868E-2,-1.736739993E-2,2.339536132E-2
1.431527471E1,-1.766660835E-2,7.202600241E-3,3.390624940E-2,3.890527277E-2
1.432523671E1,-9.507061020E-3,7.441751361E-3,4.618130922E-3,1.292636862E-2
1.433519871E1,4.990918329E-3,1.923850894E-2,-4.148307145E-2,4.599863812E-2
1.434516071E1,-1.084224530E-3,1.878418028E-2,-1.493437350E-2,2.402199999E-2
1.435512271E1,1.388403541E-2,1.236159861E-2,-9.832677841E-3,2.102990996E-2
1.436508471E1,2.926038075E-3,7.889648080E-3,1.796483919E-2,1.983793570E-2
1.437504671E1,9.310736186E-3,1.552669644E-2,4.113691628E-2,4.494456576E-2
1.438500871E1,1.682296934E-2,1.465312243E-3,4.666078091E-3,1.751946694E-2
1.439497171E1,5.982752284E-3,2.038280904E-2,-6.988826036E-2,7.304533638E-2
1.440493371E1,7.033108645E-3,5.958897471E-3,-4.472476780E-2,4.566484350E-2
1.441489571E1,2.009768419E-2,-2.323800445E-2,-3.544684455E-2,4.690842727E-2
1.442485771E1,2.131258942E-2,-4.788869619E-3,-3.472551741E-2,4.102464259E-2
1.443481971E1,9.368413487E-3,1.036711335E-2,2.197836801E-2,2.604405635E-2
1.444478171E1,6.192269898E-3,2.803973794E-2,9.424483716E-2,9.852238549E-2
1.445474371E1,-2.249933209E-2,2.064417958E-2,9.764908612E-2,1.023120038E-1
1.446470571E1,1.922354372E-3,3.099024296E-4,5.099722221E-2,5.103438213E-2
1.447466771E1,-2.404301986E-4,-1.407366335E-2,2.599087358E-2,2.955759321E-2
1.448463071E1,-1.840090443E-2,2.393206894E-2,-2.439019829E-3,3.028673019E-2
1.449459271E1,-2.277137380E-2,3.783733249E-2,1.763863765E-2,4.755334617E-2
1.450455471E1,-2.490703277E-2,3.375422180E-2,3.080254734E-2,5.204329633E-2
1.451451671E1,2.663594023E-3,-3.265085220E-3,2.007166408E-2,2.050919827E-2
1.452447871E1,1.241652589E-2,1.644237041E-3,1.852836460E-4,1.252629078E-2
1.453444071E1,5.074227448E-3,-3.329989314E-3,-6.639074832E-3,8.995216932E-3
1.454440271E1,1.598861278E-2,1.745978594E-3,-2.298394293E-3,1.624705500E-2
1.455436471E1,1.338580239E-2,1.356027782E-2,6.046020985E-3,1.999037793E-2
1.456432671E1,9.967424185E-3,1.071853101E-2,-2.796708629E-2,3.156571506E-2
1.457428921E1,1.645705698E-2,1.003791511E-2,-5.503384754E-2,5.831225291E-2
1.458425121E1,8.587275725E-4,-3.337005973E-3,8.161105067E-3,8.858705200E-3
1.459421321E1,1.318681890E-2,-6.378727555E-3,-1.042602405E-2,1.798005382E-2
1.460417521E1,1.056446145E-2,3.940438628E-3,-5.591633856E-2,5.704184272E-2
1.461413721E1,-9.393469719E-3,2.040795207E-2,9.262501225E-3,2.430052901E-2
1.462409921E1,-1.209775671E-2,3.490436912E-2,5.509465858E-2,6.633319007E-2
1.463406121E1,1.372560327E-2,3.439273775E-2,4.565447509E-2,5.878421294E-2
1.464402321E1,1.814450860E-2,2.497521222E-2,7.052261017E-2,7.698326417E-2
1.465398521E1,1.066576903E-2,-2.198553085E-4,6.188685738E-2,6.279960256E-2
1.466394821E1,9.874764089E-3,1.574070454E-2,4.239816070E-3,1.905929656E-2
1.467391021E1,-9.475527168E-3,-3.367996216E-4,2.379085869E-4,9.484495221E-3
1.468387221E1,1.513423864E-4,6.482807994E-3,9.905037135E-3,1.183889626E-2
1.469383421E1,1.071217217E-2,-1.558224499E-2,1.921848223E-2,2.696121382E-2
1.470379621E1,2.372421413E-2,-5.888146162E-3,-5.404581428E-3,2.503433845E-2
1.471375821E1,1.135781898E-2,8.018871546E-3,8.060386777E-3,1.607084901E-2
1.472372021E1,9.982585832E-3,1.084249198E-2,4.136313044E-2,4.391036565E-2
1.473368221E1,2.227858142E-2,-4.150353670E-3,9.129842520E-3,2.443183682E-2
1.474364421E1,1.754992442E-2,-3.289351165E-2,-4.009333447E-2,5.474904953E-2
1.475360721E1,2.872887799E-3,3.823494315E-3,-5.012649871E-2,5.035413058E-2
1.476356921E1,2.616802594E-3,2.663699090E-2,-1.518668085E-3,2.680826912E-2
1.477353121E1,9.828484291E-4,-5.432063341E-4,-2.327191830E-4,1.146831450E-3
1.478349321E1,-1.256888697E-2,1.790300488E-2,1.796900533E-2,2.830864985E-2
1.479345521E1,3.630709788E-3,3.960026801E-2,6.625187695E-2,7.727013963E-2
1.480341721E1,1.083913897E-3,4.027386725E-2,7.286960945E-2,8.326547444E-2
1.481337921E1,5.874249889E-3,4.209001243E-2,4.818105698E-2,6.424554622E-2
1.482334121E1,-1.993859424E-3,2.262404680E-2,9.847880602E-3,2.475487268E-2
1.483330321E1,-1.984211518E-3,1.303695202E-2,-2.069044568E-2,2.453556104E-2
1.484326621E1,-9.781249752E-4,1.709316552E-2,3.183808923E-3,1.741463968E-2
1.485322821E1,7.648815885E-3,2.234981239E-2,5.624436736E-3,2.428276728E-2
1.486319021E1,7.506043324E-3,-9.181882739E-3,-4.260164380E-2,4.422157518E-2
1.487315221E1,1.198441209E-2,-7.592024803E-3,-3.122413158E-2,3.429593805E-2
1.488311421E1,1.189598666E-2,-1.224290013E-2,-2.752459824E-2,3.238837153E-2
1.489307621E1,2.227843068E-2,-2.237963319E-2,-4.039081156E-2,5.126981679E-2
1.490303821E1,4.515398084E-3,-4.307059050E-3,-8.240831852E-2,8.264424081E-2
1.491300021E1,-1.037783477E-2,-8.655048609E-3,-1.886311769E-3,1.364432091E-2
1.492296221E1,-1.058795081E-2,-2.670423388E-3,7.035808414E-3,1.298993701E-2
1.493292521E1,8.281014101E-3,1.901514530E-2,1.749596559E-2,2.713410690E-2
1.494288721E1,9.007909801E-5,9.376595020E-3,4.303492248E-2,4.404467279E-2
1.495284921E1,-7.834396460E-3,1.210256696E-2,6.605248690E-2,6.760755076E-2
1.496281121E1,-1.291897531E-2,2.662295759E-2,2.083940350E-2,3.619340453E-2
1.497277321E1,1.267128177E-3,4.608716905E-2,-3.310108781E-2,5.675662762E-2
1.498273521E1,-2.470453181E-3,1.975774169E-2,-5.718723089E-3,2.071654627E-2
1.499269721E1,-7.081859806E-3,1.766443849E-2,3.153169513E-2,3.682978310E-2
1.500265921E1,1.178556564E-2,1.838656962E-2,1.968406677E-2,2.940115618E-2
1.501262121E1,-2.718466488E-3,1.924260199E-2,3.811215162E-3,1.980386711E-2
1.502258421E1,-2.549143913E-3,2.040502846E-2,2.423846304E-2,3.178626137E-2
1.503254621E1,-1.131123311E-2,-3.573233485E-3,1.039634943E-3,1.190767958E-2
1.504250821E1,1.219630970E-2,-1.079396009E-2,1.712876044E-2,2.363586214E-2
1.505247021E1,6.084388769E-3,-1.455196559E-2,-3.508329391E-3,1.615821353E-2
1.506243221E1,6.685482538E-3,-4.507618546E-3,-1.579917669E-2,1.773776440E-2
1.507239421E1,2.875487069E-3,-9.420449138E-3,2.732403874E-2,2.904507499E-2
1.508235621E1,-1.460310132E-3,-1.314161718E-2,3.489501357E-2,3.731617049E-2
1.509231821E1,-5.199207114E-3,1.844621122E-2,2.228198469E-2,2.939015659E-2
1.510228021E1,3.289606981E-3,1.783108413E-2,3.922297642E-2,4.321123644E-2
1.511224321E1,-4.417740447E-3,5.929661393E-3,7.130153239E-2,7.168393011E-2
1.512220521E1,2.423885134E-2,-1.062439084E-3,2.122831643E-2,3.223805374E-2
1.513216721E1,7.338986546E-4,2.994300663E-2,1.944842398E-2,3.571223108E-2
1.514212921E1,-1.548465588E-2,6.228921890E-2,-1.473659143E-2,6.585505665E-2
1.515209121E1,3.151863939E-3,2.028048277E-2,-5.877606556E-2,6.225639011E-2
1.516205321E1,5.006555063E-3,1.663415909E-2,-6.733894743E-2,6.954347333E-2
1.517201521E1,9.548672182E-3,-1.123542488E-2,-1.914086044E-2,2.416163179E-2
1.518197721E1,1.650197090E-2,-1.422744513E-2,-3.413253665E-2,4.049401556E-2
1.519194021E1,1.876835626E-2,1.649324119E-2,-2.236691549E-2,3.353441680E-2
1.520190221E1,1.253687804E-2,9.482429624E-3,4.129055187E-2,4.418143792E-2
1.521186421E1,9.411600656E-3,1.846960008E-2,1.801746413E-2,2.746513003E-2
1.522182621E1,9.858108661E-3,-2.551841855E-2,4.168991670E-3,2.767223307E-2
1.523178821E1,1.956727321E-2,-1.874617338E-2,-1.133131921E-2,2.937168692E-2
1.524175021E1,-3.624451440E-4,-1.240428329E-2,1.068300918E-2,1.637450138E-2
1.525171221E1,6.018671547E-3,1.133599699E-2,-1.736389160E-2,2.159245161E-2
1.526167421E1,-6.781066242E-3,1.714403629E-2,-3.284381032E-2,3.766452862E-2
1.527163621E1,1.174638016E-2,1.998578310E-2,-8.660457283E-4,2.319825442E-2
1.528159921E1,-2.141973965E-2,3.814138770E-3,6.431937218E-6,2.175667582E-2
1.529156121E1,-1.569883756E-2,6.734822989E-3,1.366220941E-1,1.376859032E-1
1.530152321E1,-1.355737248E-2,2.522313416E-2,1.752691197E-1,1.775929987E-1
1.531148521E1,1.882124615E-2,2.549619913E-2,1.114105082E-1,1.158300341E-1
1.532144721E1,-2.342472249E-3,2.672177553E-2,1.301297843E-1,1.328657263E-1
1.533140921E1,-4.916578291E-2,2.633059680E-2,1.413024978E-1,1.519110609E-1
1.534137121E1,-1.187758894E-1,-4.823952913E-4,1.884709632E-1,2.227762299E-1
1.535133321E1,-1.907547395E-1,-2.109967768E-2,2.658378124E-1,3.278754482E-1
1.536129521E1,-2.834254331E-1,-2.820345998E-2,-8.005481422E-2,2.958617660E-1
1.537125721E1,-3.132871269E-1,-2.431915462E-2,-9.063535094E-2,3.270397713E-1
1.538122021E1,-1.383297551E-1,-4.117550790E-2,-2.958574907E-1,3.291841406E-1
1.539118221E1,1.109551928E-1,2.722405136E-2,-3.685108993E-1,3.858140572E-1
1.540114421E1,3.837061683E-1,2.981495261E-2,-6.662458578E-1,7.694172458E-1
1.541110621E1,3.408972772E-1,-1.668795347E-3,-2.916076612E-1,4.486075864E-1
1.542106821E1,1.798772008E-1,-1.382281780E-3,1.396993375E-1,2.277578164E-1
1.543103021E1,1.172400725E-1,-2.123767197E-2,3.950378895E-2,1.255261832E-1
1.544099221E1,1.575411430E-2,-2.457584739E-3,-4.404415190E-2,4.684142565E-2
1.545095421E1,-3.181380273E-2,1.701773643E-2,1.276666448E-2,3.827151838E-2